Record Time,ax,ay,az,wx,wy,wz,AngleX,AngleY,AngleZ
2020-06-29 10:43:33,0.201,-0.187,2.943,-5.066,-0.793,-1.038,-4.65,-1.99,-3.03
2020-06-29 10:43:33,0.233,-0.283,2.975,-4.089,-1.648,-0.793,-4.67,-2.03,-3.04
2020-06-29 10:43:33,0.169,-0.315,2.926,-1.953,-2.014,0.244,-4.70,-2.08,-3.04
2020-06-29 10:43:33,0.083,-0.283,2.905,1.465,-1.404,0.916,-4.70,-2.10,-3.03
2020-06-29 10:43:33,0.075,-0.319,2.938,3.967,-0.244,1.221,-4.67,-2.10,-3.01
2020-06-29 10:43:33,0.059,-0.314,2.987,3.906,0.671,0.854,-4.65,-2.08,-3.00
2020-06-29 10:43:33,0.056,-0.270,2.981,4.395,1.709,0.427,-4.62,-2.05,-3.00
2020-06-29 10:43:33,0.051,-0.176,2.919,3.296,1.770,-0.549,-4.59,-2.03,-3.01
2020-06-29 10:43:34,0.032,-0.125,2.899,0.610,1.038,-1.343,-4.58,-2.01,-3.02
2020-06-29 10:43:34,0.101,-0.148,2.906,-2.991,0.854,-1.038,-4.58,-1.99,-3.03
2020-06-29 10:43:34,0.221,-0.209,2.953,-5.249,-1.099,-0.977,-4.62,-2.00,-3.04
2020-06-29 10:43:34,0.231,-0.275,2.976,-4.333,-1.953,-0.671,-4.65,-2.04,-3.05
2020-06-29 10:43:34,0.153,-0.285,2.925,-1.343,-1.709,0.305,-4.67,-2.08,-3.04
2020-06-29 10:43:34,0.075,-0.271,2.906,1.831,-1.160,1.160,-4.66,-2.10,-3.03
2020-06-29 10:43:34,0.083,-0.301,2.948,3.723,-0.183,1.465,-4.64,-2.10,-3.02
2020-06-29 10:43:34,0.065,-0.304,2.990,3.845,0.793,0.732,-4.61,-2.08,-3.01
2020-06-29 10:43:34,0.055,-0.268,2.979,4.211,1.709,0.183,-4.58,-2.06,-3.01
2020-06-29 10:43:34,0.033,-0.141,2.900,3.357,1.709,-0.671,-4.55,-2.03,-3.02
2020-06-29 10:43:34,0.040,-0.110,2.885,1.160,0.977,-1.465,-4.52,-2.01,-3.03
2020-06-29 10:43:34,0.114,-0.139,2.905,-3.296,0.732,-1.526,-4.53,-1.99,-3.05
2020-06-29 10:43:34,0.230,-0.218,2.957,-5.981,-1.404,-0.916,-4.57,-2.01,-3.05
2020-06-29 10:43:34,0.225,-0.286,2.977,-5.371,-2.136,-0.488,-4.62,-2.05,-3.06
2020-06-29 10:43:34,0.147,-0.287,2.928,-2.502,-1.709,0.732,-4.65,-2.09,-3.05
2020-06-29 10:43:34,0.063,-0.254,2.905,0.977,-0.916,1.160,-4.65,-2.11,-3.04
2020-06-29 10:43:34,0.079,-0.300,2.943,2.869,0.000,1.953,-4.63,-2.10,-3.02
2020-06-29 10:43:34,0.063,-0.304,2.986,2.502,0.916,1.343,-4.62,-2.08,-3.00
2020-06-29 10:43:34,0.062,-0.281,2.982,2.808,1.770,0.305,-4.60,-2.05,-3.00
2020-06-29 10:43:34,0.016,-0.151,2.901,1.953,1.648,-0.366,-4.59,-2.03,-3.01
2020-06-29 10:43:34,0.044,-0.125,2.876,0.366,1.099,-1.038,-4.57,-2.01,-3.02
2020-06-29 10:43:34,0.135,-0.159,2.899,-3.723,0.488,-1.343,-4.59,-1.99,-3.03
2020-06-29 10:43:34,0.228,-0.219,2.965,-5.615,-1.404,-0.977,-4.63,-2.01,-3.04
2020-06-29 10:43:34,0.214,-0.294,2.963,-4.272,-2.014,-0.488,-4.66,-2.05,-3.05
2020-06-29 10:43:34,0.151,-0.306,2.916,-1.648,-1.709,0.427,-4.69,-2.09,-3.04
2020-06-29 10:43:34,0.065,-0.268,2.909,1.709,-1.038,1.221,-4.69,-2.11,-3.03
2020-06-29 10:43:34,0.079,-0.313,2.944,3.784,0.305,1.282,-4.66,-2.10,-3.02
2020-06-29 10:43:34,0.066,-0.308,2.979,3.357,0.916,0.916,-4.64,-2.08,-3.00
2020-06-29 10:43:34,0.047,-0.247,2.973,3.601,1.953,0.305,-4.61,-2.05,-3.00
2020-06-29 10:43:34,0.005,-0.155,2.889,2.197,1.831,-0.671,-4.59,-2.02,-3.02
2020-06-29 10:43:34,0.049,-0.136,2.878,-0.305,1.038,-1.099,-4.58,-1.99,-3.03
2020-06-29 10:43:34,0.128,-0.182,2.922,-4.028,0.427,-1.160,-4.60,-1.98,-3.04
2020-06-29 10:43:34,0.230,-0.224,2.979,-5.188,-1.099,-0.793,-4.64,-2.00,-3.04
2020-06-29 10:43:34,0.215,-0.299,2.954,-3.113,-2.197,-0.488,-4.67,-2.04,-3.05
2020-06-29 10:43:34,0.139,-0.302,2.912,-0.305,-1.770,0.732,-4.69,-2.08,-3.04
2020-06-29 10:43:34,0.069,-0.267,2.918,2.747,-0.793,1.282,-4.67,-2.10,-3.03
2020-06-29 10:43:34,0.085,-0.316,2.964,4.395,0.244,0.977,-4.63,-2.09,-3.02
2020-06-29 10:43:34,0.066,-0.284,2.982,4.150,0.854,0.671,-4.61,-2.07,-3.01
2020-06-29 10:43:34,0.040,-0.225,2.964,4.761,1.953,0.000,-4.57,-2.04,-3.01
2020-06-29 10:43:34,0.005,-0.129,2.897,2.869,1.770,-0.977,-4.54,-2.02,-3.02
2020-06-29 10:43:34,0.050,-0.104,2.879,0.000,0.916,-1.465,-4.52,-1.99,-3.04
2020-06-29 10:43:34,0.134,-0.178,2.927,-4.211,0.000,-1.221,-4.53,-1.98,-3.05
2020-06-29 10:43:34,0.238,-0.240,2.994,-6.287,-1.282,-0.793,-4.59,-2.00,-3.06
2020-06-29 10:43:34,0.209,-0.290,2.959,-4.272,-2.380,-0.244,-4.63,-2.05,-3.06
2020-06-29 10:43:34,0.136,-0.290,2.902,-0.916,-1.709,0.977,-4.65,-2.08,-3.05
2020-06-29 10:43:34,0.067,-0.263,2.913,1.892,-0.671,1.526,-4.64,-2.09,-3.03
2020-06-29 10:43:34,0.076,-0.316,2.968,3.174,0.549,1.587,-4.61,-2.08,-3.02
2020-06-29 10:43:34,0.078,-0.294,2.980,2.808,1.038,0.793,-4.60,-2.07,-3.01
2020-06-29 10:43:34,0.034,-0.249,2.966,3.296,1.770,0.000,-4.58,-2.04,-3.01
2020-06-29 10:43:34,0.017,-0.114,2.925,2.014,1.892,-0.732,-4.56,-2.01,-3.02
2020-06-29 10:43:34,0.060,-0.134,2.880,-0.366,0.977,-1.648,-4.54,-1.98,-3.04
2020-06-29 10:43:34,0.142,-0.185,2.913,-4.639,-0.244,-1.099,-4.56,-1.98,-3.05
2020-06-29 10:43:34,0.240,-0.240,2.984,-6.042,-1.465,-0.854,-4.61,-2.00,-3.05
2020-06-29 10:43:34,0.207,-0.308,2.957,-4.272,-2.258,-0.183,-4.66,-2.05,-3.05
2020-06-29 10:43:34,0.127,-0.284,2.900,-1.282,-1.709,1.038,-4.69,-2.08,-3.04
2020-06-29 10:43:34,0.066,-0.272,2.909,2.075,-0.610,1.404,-4.67,-2.09,-3.03
2020-06-29 10:43:34,0.073,-0.317,2.963,3.052,0.732,1.526,-4.65,-2.08,-3.02
2020-06-29 10:43:34,0.077,-0.306,2.975,2.747,1.099,1.038,-4.64,-2.06,-3.00
2020-06-29 10:43:34,0.032,-0.256,2.953,2.869,1.831,0.000,-4.62,-2.03,-3.00
2020-06-29 10:43:34,0.035,-0.153,2.923,1.343,1.892,-0.916,-4.61,-2.01,-3.02
2020-06-29 10:43:34,0.080,-0.141,2.894,-1.404,0.916,-1.038,-4.61,-1.98,-3.03
2020-06-29 10:43:34,0.157,-0.193,2.921,-4.456,-0.183,-1.099,-4.64,-1.98,-3.04
2020-06-29 10:43:34,0.234,-0.255,2.976,-4.944,-1.526,-1.038,-4.67,-2.01,-3.05
2020-06-29 10:43:34,0.195,-0.303,2.954,-2.563,-2.075,-0.366,-4.70,-2.05,-3.05
2020-06-29 10:43:34,0.110,-0.296,2.902,0.366,-1.648,0.916,-4.71,-2.08,-3.04
2020-06-29 10:43:34,0.077,-0.284,2.920,3.296,-0.671,0.977,-4.69,-2.09,-3.03
2020-06-29 10:43:34,0.071,-0.326,2.974,4.333,0.671,0.732,-4.65,-2.08,-3.02
2020-06-29 10:43:34,0.068,-0.279,2.977,4.211,1.343,0.671,-4.63,-2.05,-3.02
2020-06-29 10:43:34,0.042,-0.229,2.943,4.272,1.892,-0.366,-4.59,-2.03,-3.02
2020-06-29 10:43:34,0.024,-0.145,2.907,1.709,1.709,-1.282,-4.58,-2.01,-3.03
2020-06-29 10:43:34,0.104,-0.137,2.903,-1.648,0.793,-1.160,-4.58,-1.98,-3.05
2020-06-29 10:43:34,0.193,-0.197,2.943,-4.883,-0.488,-0.793,-4.60,-1.99,-3.05
2020-06-29 10:43:34,0.229,-0.253,2.975,-5.310,-1.648,-0.977,-4.65,-2.02,-3.07
2020-06-29 10:43:34,0.184,-0.292,2.937,-2.441,-2.136,0.000,-4.67,-2.07,-3.06
2020-06-29 10:43:34,0.098,-0.279,2.898,0.732,-1.526,1.221,-4.68,-2.09,-3.05
2020-06-29 10:43:34,0.079,-0.285,2.931,3.113,-0.488,1.526,-4.65,-2.10,-3.03
2020-06-29 10:43:34,0.064,-0.321,2.994,3.601,0.549,0.977,-4.63,-2.09,-3.02
2020-06-29 10:43:34,0.074,-0.277,2.983,3.906,1.404,0.488,-4.60,-2.06,-3.02
2020-06-29 10:43:34,0.051,-0.196,2.947,3.845,1.587,-0.183,-4.58,-2.04,-3.02
2020-06-29 10:43:34,0.019,-0.105,2.892,1.770,1.709,-1.343,-4.55,-2.02,-3.04
2020-06-29 10:43:34,0.111,-0.134,2.881,-1.648,0.671,-1.526,-4.54,-1.99,-3.05
2020-06-29 10:43:34,0.199,-0.187,2.942,-5.554,-0.732,-0.916,-4.58,-2.00,-3.06
2020-06-29 10:43:34,0.235,-0.266,2.979,-6.042,-1.709,-0.854,-4.63,-2.04,-3.07
2020-06-29 10:43:34,0.174,-0.296,2.932,-3.540,-2.197,0.244,-4.66,-2.08,-3.07
2020-06-29 10:43:34,0.085,-0.270,2.896,0.000,-1.282,1.282,-4.67,-2.11,-3.05
2020-06-29 10:43:34,0.074,-0.288,2.922,2.380,0.000,1.648,-4.66,-2.10,-3.03
2020-06-29 10:43:34,0.058,-0.321,2.983,2.563,0.854,1.404,-4.65,-2.09,-3.02
2020-06-29 10:43:34,0.071,-0.289,2.981,2.686,1.648,0.671,-4.64,-2.06,-3.02
2020-06-29 10:43:34,0.054,-0.203,2.950,2.502,1.648,-0.183,-4.62,-2.04,-3.02
2020-06-29 10:43:34,0.031,-0.107,2.894,0.793,1.648,-1.099,-4.60,-2.01,-3.03
2020-06-29 10:43:34,0.117,-0.156,2.876,-2.258,0.793,-1.282,-4.60,-1.99,-3.04
2020-06-29 10:43:34,0.203,-0.182,2.935,-5.371,-0.916,-0.916,-4.64,-2.01,-3.05
2020-06-29 10:43:34,0.229,-0.281,2.980,-4.700,-1.709,-0.793,-4.67,-2.04,-3.06
2020-06-29 10:43:34,0.167,-0.314,2.937,-2.563,-2.014,0.244,-4.71,-2.08,-3.05
2020-06-29 10:43:34,0.078,-0.276,2.909,0.793,-1.343,0.977,-4.71,-2.11,-3.04
2020-06-29 10:43:34,0.074,-0.308,2.926,3.662,0.000,1.160,-4.69,-2.10,-3.03
2020-06-29 10:43:34,0.060,-0.318,2.979,3.540,0.732,1.038,-4.66,-2.09,-3.02
2020-06-29 10:43:34,0.061,-0.267,2.978,3.906,1.709,0.549,-4.64,-2.06,-3.02
2020-06-29 10:43:35,0.047,-0.178,2.919,3.113,1.770,-0.671,-4.61,-2.03,-3.03
2020-06-29 10:43:35,0.040,-0.118,2.895,0.610,1.282,-1.221,-4.59,-2.01,-3.04
2020-06-29 10:43:35,0.119,-0.162,2.894,-2.869,0.854,-0.977,-4.60,-1.99,-3.05
2020-06-29 10:43:35,0.222,-0.197,2.948,-5.188,-1.038,-0.854,-4.64,-2.01,-3.06
2020-06-29 10:43:35,0.230,-0.290,2.976,-4.028,-1.831,-0.793,-4.67,-2.05,-3.07
2020-06-29 10:43:35,0.145,-0.291,2.925,-1.404,-1.831,0.610,-4.69,-2.09,-3.06
2020-06-29 10:43:35,0.074,-0.270,2.907,2.075,-1.099,1.099,-4.68,-2.10,-3.04
2020-06-29 10:43:35,0.083,-0.310,2.943,4.211,0.000,0.977,-4.65,-2.10,-3.04
2020-06-29 10:43:35,0.060,-0.295,2.987,4.211,0.793,0.793,-4.62,-2.09,-3.03
2020-06-29 10:43:35,0.052,-0.246,2.977,4.822,1.892,0.244,-4.58,-2.05,-3.03
2020-06-29 10:43:35,0.032,-0.149,2.897,3.601,1.892,-0.977,-4.54,-2.03,-3.04
2020-06-29 10:43:35,0.038,-0.088,2.886,0.916,1.038,-1.526,-4.52,-2.01,-3.05
2020-06-29 10:43:35,0.121,-0.151,2.906,-3.052,0.854,-1.343,-4.52,-1.98,-3.07
2020-06-29 10:43:35,0.232,-0.217,2.956,-6.165,-1.343,-0.916,-4.56,-2.01,-3.08
2020-06-29 10:43:35,0.225,-0.287,2.974,-5.371,-2.197,-0.488,-4.61,-2.05,-3.08
2020-06-29 10:43:35,0.145,-0.279,2.929,-2.197,-1.648,0.854,-4.65,-2.09,-3.07
2020-06-29 10:43:35,0.063,-0.262,2.905,1.160,-0.916,1.404,-4.64,-2.10,-3.05
2020-06-29 10:43:35,0.083,-0.289,2.941,2.869,0.000,1.770,-4.62,-2.09,-3.04
2020-06-29 10:43:35,0.063,-0.299,2.985,2.930,0.854,1.099,-4.60,-2.08,-3.03
2020-06-29 10:43:35,0.057,-0.271,2.980,3.113,1.892,0.427,-4.58,-2.05,-3.03
2020-06-29 10:43:35,0.009,-0.139,2.899,2.319,1.648,-0.549,-4.56,-2.03,-3.03
2020-06-29 10:43:35,0.044,-0.109,2.871,0.732,1.221,-1.343,-4.54,-1.99,-3.04
2020-06-29 10:43:35,0.145,-0.163,2.896,-3.662,0.488,-1.160,-4.55,-1.98,-3.06
2020-06-29 10:43:35,0.238,-0.212,2.967,-6.104,-1.465,-0.854,-4.60,-2.01,-3.07
2020-06-29 10:43:35,0.216,-0.310,2.967,-4.761,-2.075,-0.549,-4.64,-2.05,-3.07
2020-06-29 10:43:35,0.136,-0.296,2.921,-2.197,-1.709,0.854,-4.67,-2.09,-3.06
2020-06-29 10:43:35,0.060,-0.269,2.908,1.404,-0.793,1.465,-4.67,-2.10,-3.04
2020-06-29 10:43:35,0.078,-0.309,2.947,3.113,0.366,1.160,-4.65,-2.09,-3.03
2020-06-29 10:43:35,0.061,-0.301,2.979,2.991,0.977,0.854,-4.63,-2.07,-3.03
2020-06-29 10:43:35,0.053,-0.258,2.974,3.296,2.014,0.549,-4.61,-2.04,-3.02
2020-06-29 10:43:35,0.005,-0.137,2.905,1.770,1.770,-0.916,-4.60,-2.02,-3.03
2020-06-29 10:43:35,0.048,-0.145,2.868,-0.366,1.099,-1.404,-4.58,-1.98,-3.05
2020-06-29 10:43:35,0.144,-0.170,2.912,-4.272,0.183,-0.977,-4.61,-1.97,-3.05
2020-06-29 10:43:35,0.242,-0.237,2.980,-5.127,-1.282,-0.916,-4.65,-1.99,-3.07
2020-06-29 10:43:35,0.204,-0.313,2.954,-3.357,-2.197,-0.671,-4.67,-2.04,-3.07
2020-06-29 10:43:35,0.135,-0.295,2.907,-0.427,-1.831,0.793,-4.70,-2.08,-3.06
2020-06-29 10:43:35,0.072,-0.291,2.916,2.991,-0.854,1.221,-4.67,-2.09,-3.05
2020-06-29 10:43:35,0.082,-0.320,2.967,4.211,0.305,0.732,-4.65,-2.08,-3.04
2020-06-29 10:43:35,0.066,-0.276,2.981,4.578,0.977,0.610,-4.61,-2.07,-3.03
2020-06-29 10:43:35,0.045,-0.247,2.954,5.005,2.136,0.000,-4.57,-2.04,-3.04
2020-06-29 10:43:35,0.027,-0.133,2.924,2.441,1.831,-1.221,-4.55,-2.01,-3.05
2020-06-29 10:43:35,0.079,-0.134,2.897,-0.549,1.099,-1.282,-4.54,-1.98,-3.07
2020-06-29 10:43:35,0.152,-0.195,2.927,-4.517,0.000,-1.038,-4.56,-1.98,-3.08
2020-06-29 10:43:35,0.243,-0.252,2.987,-5.981,-1.343,-0.732,-4.61,-2.01,-3.08
2020-06-29 10:43:35,0.199,-0.284,2.956,-3.601,-2.197,0.000,-4.65,-2.05,-3.08
2020-06-29 10:43:35,0.123,-0.287,2.896,0.000,-1.587,1.099,-4.66,-2.09,-3.07
2020-06-29 10:43:35,0.067,-0.268,2.915,2.441,-0.854,1.526,-4.65,-2.10,-3.05
2020-06-29 10:43:35,0.064,-0.320,2.975,3.723,0.671,1.404,-4.61,-2.08,-3.04
2020-06-29 10:43:35,0.082,-0.292,2.982,3.479,1.160,0.671,-4.60,-2.06,-3.03
2020-06-29 10:43:35,0.043,-0.237,2.952,3.967,1.709,0.000,-4.56,-2.04,-3.03
2020-06-29 10:43:35,0.030,-0.125,2.916,2.441,1.892,-1.160,-4.54,-2.01,-3.04
2020-06-29 10:43:35,0.087,-0.131,2.896,-0.488,0.977,-1.526,-4.53,-1.99,-3.06
2020-06-29 10:43:35,0.150,-0.187,2.928,-5.066,-0.366,-1.038,-4.55,-1.99,-3.07
2020-06-29 10:43:35,0.234,-0.268,2.975,-6.348,-1.465,-0.916,-4.61,-2.01,-3.08
2020-06-29 10:43:35,0.195,-0.308,2.954,-4.395,-2.319,0.000,-4.66,-2.06,-3.08
2020-06-29 10:43:35,0.103,-0.260,2.900,-0.916,-1.404,1.282,-4.68,-2.09,-3.07
2020-06-29 10:43:35,0.062,-0.282,2.913,2.197,-0.488,1.587,-4.66,-2.09,-3.05
2020-06-29 10:43:35,0.060,-0.305,2.971,2.625,0.854,1.404,-4.65,-2.08,-3.03
2020-06-29 10:43:35,0.073,-0.294,2.979,2.747,1.404,0.793,-4.63,-2.05,-3.03
2020-06-29 10:43:35,0.064,-0.236,2.961,2.625,1.831,0.000,-4.61,-2.03,-3.03
2020-06-29 10:43:35,0.029,-0.138,2.901,0.916,1.709,-1.160,-4.61,-2.00,-3.04
2020-06-29 10:43:35,0.094,-0.145,2.880,-1.709,0.977,-1.221,-4.60,-1.98,-3.05
2020-06-29 10:43:35,0.182,-0.191,2.932,-5.066,-0.488,-0.916,-4.64,-1.98,-3.07
2020-06-29 10:43:35,0.224,-0.251,2.975,-4.944,-1.648,-0.977,-4.67,-2.02,-3.07
2020-06-29 10:43:35,0.185,-0.321,2.935,-2.747,-2.258,0.000,-4.71,-2.06,-3.07
2020-06-29 10:43:35,0.083,-0.272,2.901,0.366,-1.648,1.038,-4.72,-2.09,-3.06
2020-06-29 10:43:35,0.072,-0.313,2.922,3.479,-0.366,1.221,-4.69,-2.09,-3.05
2020-06-29 10:43:35,0.059,-0.301,2.980,3.662,0.488,0.732,-4.67,-2.08,-3.04
2020-06-29 10:43:35,0.066,-0.286,2.978,4.456,1.587,0.610,-4.64,-2.05,-3.03
2020-06-29 10:43:35,0.065,-0.186,2.940,3.540,1.770,-0.244,-4.61,-2.03,-3.04
2020-06-29 10:43:35,0.033,-0.125,2.898,1.221,1.404,-1.587,-4.59,-2.01,-3.05
2020-06-29 10:43:35,0.103,-0.153,2.883,-2.380,0.854,-1.038,-4.59,-1.98,-3.07
2020-06-29 10:43:35,0.209,-0.197,2.943,-5.310,-0.732,-0.793,-4.63,-1.99,-3.08
2020-06-29 10:43:35,0.231,-0.266,2.988,-4.578,-1.770,-0.793,-4.66,-2.03,-3.08
2020-06-29 10:43:35,0.162,-0.302,2.931,-1.892,-1.892,0.244,-4.69,-2.08,-3.08
2020-06-29 10:43:35,0.071,-0.269,2.901,1.587,-1.343,1.221,-4.68,-2.10,-3.07
2020-06-29 10:43:35,0.083,-0.307,2.941,3.845,-0.183,1.404,-4.65,-2.09,-3.05
2020-06-29 10:43:35,0.053,-0.300,2.993,4.089,0.732,0.366,-4.62,-2.08,-3.04
2020-06-29 10:43:35,0.064,-0.269,2.981,4.822,1.892,0.305,-4.59,-2.05,-3.04
2020-06-29 10:43:35,0.046,-0.151,2.917,4.028,1.770,-0.671,-4.55,-2.02,-3.05
2020-06-29 10:43:35,0.036,-0.100,2.891,1.709,1.282,-1.770,-4.52,-2.00,-3.07
2020-06-29 10:43:35,0.112,-0.137,2.894,-2.563,0.793,-1.465,-4.52,-1.98,-3.09
2020-06-29 10:43:35,0.224,-0.210,2.948,-5.981,-1.221,-0.916,-4.56,-2.00,-3.09
2020-06-29 10:43:35,0.236,-0.276,2.984,-5.920,-2.075,-0.610,-4.61,-2.04,-3.10
2020-06-29 10:43:35,0.154,-0.288,2.933,-2.869,-1.831,0.610,-4.65,-2.08,-3.09
2020-06-29 10:43:35,0.066,-0.259,2.902,0.732,-1.099,1.465,-4.65,-2.10,-3.08
2020-06-29 10:43:35,0.073,-0.288,2.937,2.686,0.000,1.709,-4.63,-2.09,-3.06
2020-06-29 10:43:35,0.054,-0.305,2.987,2.808,0.854,1.160,-4.61,-2.08,-3.05
2020-06-29 10:43:35,0.068,-0.278,2.989,3.052,1.892,0.549,-4.59,-2.05,-3.04
2020-06-29 10:43:35,0.021,-0.156,2.902,2.502,1.587,-0.488,-4.58,-2.03,-3.05
2020-06-29 10:43:35,0.046,-0.107,2.874,0.916,1.221,-1.404,-4.55,-2.00,-3.07
2020-06-29 10:43:35,0.134,-0.146,2.891,-3.235,0.549,-1.343,-4.56,-1.98,-3.08
2020-06-29 10:43:35,0.228,-0.211,2.950,-5.981,-1.343,-0.854,-4.60,-2.01,-3.09
2020-06-29 10:43:35,0.223,-0.299,2.971,-5.127,-2.136,-0.488,-4.65,-2.05,-3.09
2020-06-29 10:43:35,0.150,-0.313,2.923,-2.441,-1.831,0.610,-4.68,-2.09,-3.08
2020-06-29 10:43:35,0.059,-0.273,2.908,1.038,-1.099,1.282,-4.69,-2.10,-3.07
2020-06-29 10:43:35,0.069,-0.297,2.938,3.296,0.183,1.404,-4.66,-2.09,-3.05
2020-06-29 10:43:35,0.057,-0.311,2.982,3.174,0.916,0.793,-4.64,-2.08,-3.05
2020-06-29 10:43:35,0.059,-0.261,2.979,3.174,2.014,0.427,-4.62,-2.05,-3.04
2020-06-29 10:43:35,0.013,-0.159,2.896,2.197,1.770,-0.793,-4.60,-2.02,-3.05
2020-06-29 10:43:36,0.048,-0.146,2.874,0.000,1.160,-1.343,-4.59,-1.99,-3.07
2020-06-29 10:43:36,0.139,-0.181,2.917,-4.028,0.427,-1.099,-4.61,-1.98,-3.08
2020-06-29 10:43:36,0.233,-0.214,2.973,-5.188,-1.099,-0.916,-4.65,-2.00,-3.09
2020-06-29 10:43:36,0.217,-0.322,2.956,-3.296,-2.014,-0.549,-4.68,-2.04,-3.09
2020-06-29 10:43:36,0.137,-0.301,2.906,-0.793,-1.709,0.732,-4.70,-2.08,-3.08
2020-06-29 10:43:36,0.067,-0.284,2.915,2.930,-0.916,1.343,-4.69,-2.09,-3.07
2020-06-29 10:43:36,0.070,-0.306,2.958,4.456,0.244,0.671,-4.65,-2.08,-3.06
2020-06-29 10:43:36,0.061,-0.288,2.979,4.639,1.038,0.610,-4.62,-2.07,-3.05
2020-06-29 10:43:36,0.052,-0.234,2.961,5.127,2.075,0.000,-4.58,-2.04,-3.06
2020-06-29 10:43:36,0.035,-0.163,2.925,2.930,1.831,-1.221,-4.54,-2.01,-3.07
2020-06-29 10:43:36,0.058,-0.132,2.898,-0.366,1.038,-1.160,-4.54,-1.99,-3.09
2020-06-29 10:43:36,0.142,-0.201,2.926,-4.211,0.000,-0.977,-4.56,-1.98,-3.09
2020-06-29 10:43:36,0.236,-0.245,2.989,-6.226,-1.282,-0.916,-4.61,-2.00,-3.10
2020-06-29 10:43:36,0.210,-0.285,2.961,-3.967,-2.319,0.000,-4.65,-2.05,-3.10
2020-06-29 10:43:36,0.135,-0.284,2.897,-0.366,-1.770,1.221,-4.66,-2.08,-3.09
2020-06-29 10:43:36,0.135,-0.284,2.897,2.258,-0.854,1.282,-4.65,-2.10,-3.08
2020-06-29 10:43:36,0.062,-0.267,2.913,2.258,-0.854,1.282,-4.64,-2.11,-3.06
2020-06-29 10:43:36,0.058,-0.306,2.973,3.601,0.549,1.404,-4.61,-2.09,-3.05
2020-06-29 10:43:36,0.083,-0.287,2.981,3.601,1.221,0.549,-4.59,-2.07,-3.04
2020-06-29 10:43:36,0.052,-0.259,2.963,3.967,1.831,-0.244,-4.56,-2.05,-3.04
2020-06-29 10:43:36,0.042,-0.139,2.918,2.380,1.953,-1.160,-4.54,-2.02,-3.06
2020-06-29 10:43:36,0.077,-0.134,2.898,-0.244,0.916,-1.648,-4.52,-2.00,-3.08
2020-06-29 10:43:36,0.146,-0.198,2.927,-5.005,-0.244,-0.977,-4.55,-2.00,-3.09
2020-06-29 10:43:36,0.238,-0.248,2.983,-6.653,-1.587,-0.977,-4.61,-2.02,-3.09
2020-06-29 10:43:36,0.208,-0.318,2.962,-4.517,-2.197,0.183,-4.66,-2.07,-3.09
2020-06-29 10:43:36,0.115,-0.272,2.903,-1.465,-1.587,1.221,-4.69,-2.10,-3.08
2020-06-29 10:43:36,0.061,-0.278,2.910,2.014,-0.549,1.709,-4.67,-2.11,-3.06
2020-06-29 10:43:36,0.044,-0.307,2.967,2.747,0.793,1.404,-4.65,-2.09,-3.05
2020-06-29 10:43:36,0.073,-0.294,2.972,2.747,1.526,0.793,-4.64,-2.07,-3.04
2020-06-29 10:43:36,0.078,-0.243,2.973,2.625,1.709,0.000,-4.63,-2.04,-3.04
2020-06-29 10:43:36,0.038,-0.154,2.904,0.977,1.648,-1.221,-4.61,-2.02,-3.05
2020-06-29 10:43:36,0.086,-0.168,2.885,-1.587,0.732,-1.160,-4.61,-2.00,-3.07
2020-06-29 10:43:36,0.170,-0.175,2.933,-5.127,-0.366,-0.793,-4.65,-2.00,-3.08
2020-06-29 10:43:36,0.231,-0.266,2.975,-4.700,-1.465,-0.977,-4.69,-2.03,-3.08
2020-06-29 10:43:36,0.187,-0.320,2.932,-2.930,-2.258,0.000,-4.72,-2.08,-3.08
2020-06-29 10:43:36,0.096,-0.290,2.908,0.427,-1.648,1.343,-4.73,-2.11,-3.07
2020-06-29 10:43:36,0.063,-0.298,2.918,3.479,-0.427,0.977,-4.71,-2.11,-3.05
2020-06-29 10:43:36,0.043,-0.304,2.980,4.028,0.610,0.549,-4.67,-2.09,-3.05
2020-06-29 10:43:36,0.063,-0.250,2.979,4.517,1.709,0.854,-4.64,-2.06,-3.04
2020-06-29 10:43:36,0.087,-0.201,2.948,4.089,1.770,-0.610,-4.60,-2.04,-3.05
2020-06-29 10:43:36,0.034,-0.134,2.897,0.854,1.099,-1.526,-4.59,-2.02,-3.07
2020-06-29 10:43:36,0.100,-0.166,2.894,-2.258,0.793,-0.916,-4.59,-2.01,-3.08
2020-06-29 10:43:36,0.210,-0.188,2.941,-5.432,-0.854,-0.732,-4.63,-2.01,-3.08
2020-06-29 10:43:36,0.236,-0.262,2.989,-4.700,-1.709,-0.916,-4.67,-2.05,-3.09
2020-06-29 10:43:36,0.173,-0.303,2.925,-1.953,-1.892,0.427,-4.69,-2.09,-3.09
2020-06-29 10:43:36,0.085,-0.274,2.902,1.465,-1.465,1.282,-4.69,-2.12,-3.07
2020-06-29 10:43:36,0.070,-0.301,2.935,3.784,-0.366,1.160,-4.66,-2.11,-3.06
2020-06-29 10:43:36,0.046,-0.290,2.992,4.211,0.793,0.427,-4.63,-2.10,-3.05
2020-06-29 10:43:36,0.066,-0.256,2.983,4.944,1.831,0.366,-4.59,-2.07,-3.05
2020-06-29 10:43:36,0.068,-0.166,2.915,4.211,1.770,-0.916,-4.55,-2.04,-3.07
2020-06-29 10:43:36,0.045,-0.113,2.892,1.709,0.977,-1.831,-4.52,-2.03,-3.08
2020-06-29 10:43:36,0.114,-0.146,2.899,-2.441,0.732,-1.404,-4.52,-2.01,-3.10
2020-06-29 10:43:36,0.220,-0.215,2.944,-6.165,-1.282,-0.854,-4.56,-2.03,-3.10
2020-06-29 10:43:36,0.239,-0.271,2.983,-6.165,-2.075,-0.549,-4.63,-2.07,-3.11
2020-06-29 10:43:36,0.163,-0.294,2.929,-2.991,-1.831,0.977,-4.66,-2.11,-3.10
2020-06-29 10:43:36,0.066,-0.268,2.903,0.488,-1.160,1.343,-4.66,-2.14,-3.08
2020-06-29 10:43:36,0.062,-0.282,2.931,2.563,0.000,1.892,-4.65,-2.13,-3.07
2020-06-29 10:43:36,0.044,-0.293,2.985,2.991,1.038,1.221,-4.63,-2.10,-3.05
2020-06-29 10:43:36,0.074,-0.281,2.986,3.052,1.953,0.305,-4.60,-2.07,-3.05
2020-06-29 10:43:36,0.033,-0.172,2.905,2.319,1.465,-0.549,-4.59,-2.05,-3.06
2020-06-29 10:43:36,0.051,-0.123,2.879,1.038,1.099,-1.221,-4.56,-2.03,-3.07
2020-06-29 10:43:36,0.146,-0.184,2.900,-3.357,0.366,-1.343,-4.58,-2.02,-3.09
2020-06-29 10:43:36,0.221,-0.193,2.956,-6.348,-1.282,-0.793,-4.63,-2.04,-3.09
2020-06-29 10:43:36,0.227,-0.301,2.972,-4.761,-1.892,-0.427,-4.67,-2.08,-3.10
2020-06-29 10:43:36,0.163,-0.324,2.917,-2.563,-1.770,0.854,-4.71,-2.12,-3.09
2020-06-29 10:43:36,0.064,-0.271,2.908,0.916,-1.160,1.404,-4.71,-2.14,-3.07
2020-06-29 10:43:36,0.057,-0.298,2.934,3.540,0.366,1.099,-4.69,-2.13,-3.06
2020-06-29 10:43:36,0.052,-0.309,2.975,3.357,1.160,0.671,-4.66,-2.10,-3.05
2020-06-29 10:43:36,0.064,-0.257,2.977,3.540,2.136,0.549,-4.64,-2.07,-3.05
2020-06-29 10:43:36,0.031,-0.185,2.911,2.258,1.709,-1.160,-4.62,-2.04,-3.07
2020-06-29 10:43:36,0.051,-0.173,2.878,-0.244,0.977,-1.404,-4.61,-2.02,-3.08
2020-06-29 10:43:36,0.139,-0.196,2.924,-4.272,0.000,-0.916,-4.64,-2.02,-3.09
2020-06-29 10:43:36,0.221,-0.218,2.979,-5.249,-1.038,-0.977,-4.69,-2.03,-3.10
2020-06-29 10:43:36,0.225,-0.314,2.958,-3.357,-2.014,-0.366,-4.71,-2.08,-3.10
2020-06-29 10:43:36,0.145,-0.293,2.905,-0.549,-1.892,0.977,-4.74,-2.11,-3.09
2020-06-29 10:43:36,0.074,-0.303,2.914,2.930,-0.916,1.343,-4.72,-2.13,-3.07
2020-06-29 10:43:36,0.048,-0.289,2.958,4.272,0.183,0.732,-4.69,-2.12,-3.07
2020-06-29 10:43:36,0.067,-0.287,2.979,5.005,1.221,0.610,-4.65,-2.09,-3.06
2020-06-29 10:43:36,0.054,-0.234,2.962,5.127,2.014,0.000,-4.60,-2.07,-3.06
2020-06-29 10:43:36,0.061,-0.193,2.926,3.052,1.770,-1.404,-4.57,-2.04,-3.08
2020-06-29 10:43:36,0.068,-0.140,2.908,-0.610,0.671,-1.282,-4.57,-2.03,-3.09
2020-06-29 10:43:36,0.141,-0.219,2.937,-4.272,0.000,-1.099,-4.59,-2.02,-3.10
2020-06-29 10:43:36,0.228,-0.230,2.984,-6.409,-1.404,-0.732,-4.65,-2.04,-3.11
2020-06-29 10:43:36,0.220,-0.289,2.960,-3.845,-2.197,0.183,-4.69,-2.09,-3.10
2020-06-29 10:43:37,0.135,-0.287,2.898,-0.610,-1.770,1.282,-4.70,-2.13,-3.09
2020-06-29 10:43:37,0.067,-0.260,2.912,2.136,-0.793,1.404,-4.69,-2.14,-3.08
2020-06-29 10:43:37,0.032,-0.301,2.968,3.662,0.671,1.526,-4.66,-2.12,-3.06
2020-06-29 10:43:37,0.081,-0.291,2.975,3.540,1.648,0.549,-4.64,-2.09,-3.05
2020-06-29 10:43:37,0.066,-0.243,2.968,3.906,1.770,-0.305,-4.61,-2.07,-3.06
2020-06-29 10:43:37,0.056,-0.178,2.913,2.380,1.892,-1.160,-4.59,-2.04,-3.08
2020-06-29 10:43:37,0.072,-0.140,2.900,-0.732,0.610,-1.587,-4.58,-2.03,-3.09
2020-06-29 10:43:37,0.154,-0.220,2.934,-4.944,-0.305,-1.160,-4.61,-2.02,-3.10
2020-06-29 10:43:37,0.219,-0.231,2.979,-6.897,-1.648,-0.854,-4.67,-2.05,-3.11
2020-06-29 10:43:37,0.213,-0.326,2.951,-4.150,-2.136,0.000,-4.71,-2.09,-3.11
2020-06-29 10:43:37,0.120,-0.273,2.898,-1.465,-1.770,1.343,-4.75,-2.13,-3.09
2020-06-29 10:43:37,0.062,-0.276,2.904,2.075,-0.549,1.648,-4.73,-2.14,-3.08
2020-06-29 10:43:37,0.029,-0.305,2.967,2.930,0.793,1.343,-4.71,-2.12,-3.07
2020-06-29 10:43:37,0.071,-0.287,2.974,2.808,1.770,0.732,-4.70,-2.08,-3.06
2020-06-29 10:43:37,0.088,-0.230,2.976,2.930,1.709,0.244,-4.67,-2.06,-3.05
2020-06-29 10:43:37,0.051,-0.176,2.906,1.160,1.648,-1.221,-4.66,-2.04,-3.07
2020-06-29 10:43:37,0.084,-0.174,2.887,-1.831,0.549,-1.221,-4.66,-2.03,-3.08
2020-06-29 10:43:37,0.173,-0.195,2.941,-5.188,-0.427,-0.854,-4.70,-2.03,-3.09
2020-06-29 10:43:37,0.224,-0.248,2.983,-4.944,-1.465,-0.732,-4.74,-2.05,-3.10
2020-06-29 10:43:37,0.202,-0.323,2.929,-2.747,-2.136,0.000,-4.77,-2.10,-3.09
2020-06-29 10:43:37,0.097,-0.284,2.901,0.366,-1.770,1.099,-4.78,-2.13,-3.08
2020-06-29 10:43:37,0.067,-0.301,2.916,3.601,-0.305,1.221,-4.76,-2.13,-3.07
2020-06-29 10:43:37,0.026,-0.294,2.979,4.211,0.610,0.610,-4.72,-2.12,-3.07
2020-06-29 10:43:37,0.067,-0.270,2.977,4.700,2.014,0.549,-4.69,-2.08,-3.06
2020-06-29 10:43:37,0.086,-0.189,2.947,4.028,1.709,-0.671,-4.65,-2.06,-3.07
2020-06-29 10:43:37,0.051,-0.159,2.902,1.404,1.343,-1.587,-4.63,-2.04,-3.09
2020-06-29 10:43:37,0.102,-0.172,2.901,-2.502,0.549,-1.038,-4.64,-2.03,-3.10
2020-06-29 10:43:37,0.208,-0.205,2.943,-5.432,-0.732,-0.916,-4.68,-2.03,-3.10
2020-06-29 10:43:37,0.231,-0.244,2.986,-4.883,-1.709,-0.610,-4.72,-2.07,-3.11
2020-06-29 10:43:37,0.182,-0.316,2.922,-1.770,-1.770,0.427,-4.74,-2.11,-3.10
2020-06-29 10:43:37,0.087,-0.266,2.904,1.099,-1.526,1.404,-4.74,-2.14,-3.09
2020-06-29 10:43:37,0.070,-0.300,2.931,3.967,-0.244,1.343,-4.71,-2.14,-3.08
2020-06-29 10:43:37,0.031,-0.292,2.990,4.272,0.793,0.671,-4.67,-2.12,-3.07
2020-06-29 10:43:37,0.064,-0.253,2.981,4.883,2.014,0.427,-4.64,-2.09,-3.07
2020-06-29 10:43:37,0.069,-0.167,2.911,4.272,1.648,-0.854,-4.60,-2.06,-3.08
2020-06-29 10:43:37,0.054,-0.134,2.895,1.709,1.099,-1.465,-4.56,-2.04,-3.09
2020-06-29 10:43:37,0.110,-0.145,2.906,-2.686,0.610,-1.343,-4.57,-2.03,-3.10
2020-06-29 10:43:37,0.213,-0.232,2.945,-6.165,-1.099,-0.977,-4.61,-2.04,-3.11
2020-06-29 10:43:37,0.237,-0.259,2.986,-6.531,-2.136,-0.183,-4.68,-2.09,-3.11
2020-06-29 10:43:37,0.173,-0.306,2.930,-2.869,-1.770,0.916,-4.71,-2.13,-3.10
2020-06-29 10:43:37,0.072,-0.266,2.904,0.183,-1.221,1.343,-4.72,-2.15,-3.09
2020-06-29 10:43:37,0.054,-0.279,2.928,2.563,0.000,1.831,-4.70,-2.14,-3.07
2020-06-29 10:43:37,0.036,-0.281,2.983,2.991,1.038,1.343,-4.68,-2.12,-3.06
2020-06-29 10:43:37,0.069,-0.274,2.979,3.052,2.136,0.244,-4.66,-2.08,-3.06
2020-06-29 10:43:37,0.048,-0.176,2.903,2.380,1.587,-0.549,-4.64,-2.06,-3.07
2020-06-29 10:43:37,0.059,-0.137,2.886,0.977,1.221,-1.404,-4.62,-2.04,-3.08
2020-06-29 10:43:37,0.139,-0.190,2.909,-3.357,0.488,-1.343,-4.63,-2.03,-3.09
2020-06-29 10:43:37,0.213,-0.191,2.952,-6.165,-1.099,-0.854,-4.69,-2.04,-3.10
2020-06-29 10:43:37,0.224,-0.297,2.974,-4.700,-1.770,-0.427,-4.72,-2.08,-3.10
2020-06-29 10:43:37,0.167,-0.324,2.917,-2.563,-1.587,0.732,-4.76,-2.12,-3.10
2020-06-29 10:43:37,0.070,-0.274,2.912,0.977,-1.221,1.282,-4.76,-2.14,-3.08
2020-06-29 10:43:37,0.044,-0.292,2.929,3.601,0.244,1.282,-4.74,-2.13,-3.07
2020-06-29 10:43:37,0.045,-0.290,2.977,3.601,1.221,0.793,-4.71,-2.10,-3.06
2020-06-29 10:43:37,0.068,-0.253,2.974,3.906,2.136,0.305,-4.67,-2.07,-3.06
2020-06-29 10:43:37,0.045,-0.192,2.916,2.502,1.709,-1.099,-4.65,-2.05,-3.07
2020-06-29 10:43:37,0.056,-0.181,2.887,-0.183,0.977,-1.038,-4.65,-2.03,-3.08
2020-06-29 10:43:37,0.142,-0.219,2.932,-4.211,0.000,-1.038,-4.67,-2.02,-3.09
2020-06-29 10:43:37,0.210,-0.200,2.981,-5.676,-1.099,-1.038,-4.73,-2.04,-3.10
2020-06-29 10:43:37,0.223,-0.311,2.959,-3.235,-1.831,0.000,-4.75,-2.08,-3.10
2020-06-29 10:43:37,0.162,-0.300,2.897,-0.793,-1.953,1.099,-4.77,-2.11,-3.09
2020-06-29 10:43:37,0.075,-0.282,2.915,2.686,-1.099,1.099,-4.76,-2.14,-3.08
2020-06-29 10:43:37,0.037,-0.300,2.946,4.333,0.244,0.854,-4.72,-2.13,-3.07
2020-06-29 10:43:37,0.066,-0.259,2.975,4.761,1.160,0.610,-4.69,-2.10,-3.07
2020-06-29 10:43:37,0.057,-0.232,2.961,5.371,1.892,0.000,-4.64,-2.08,-3.07
2020-06-29 10:43:37,0.072,-0.190,2.920,3.235,1.770,-1.465,-4.60,-2.05,-3.08
2020-06-29 10:43:37,0.072,-0.149,2.904,-0.305,0.427,-1.465,-4.60,-2.04,-3.10
2020-06-29 10:43:37,0.136,-0.210,2.941,-4.150,0.000,-1.221,-4.62,-2.03,-3.11
2020-06-29 10:43:37,0.221,-0.228,2.981,-6.653,-1.404,-0.977,-4.68,-2.05,-3.12
2020-06-29 10:43:37,0.226,-0.277,2.960,-4.272,-2.197,0.183,-4.72,-2.10,-3.11
2020-06-29 10:43:37,0.143,-0.286,2.892,-0.793,-1.770,1.160,-4.74,-2.14,-3.10
2020-06-29 10:43:37,0.064,-0.261,2.910,2.014,-0.732,1.404,-4.72,-2.15,-3.09
2020-06-29 10:43:37,0.026,-0.295,2.958,3.479,0.549,1.709,-4.70,-2.13,-3.07
2020-06-29 10:43:37,0.067,-0.257,2.976,3.723,1.648,0.427,-4.67,-2.10,-3.07
2020-06-29 10:43:37,0.070,-0.261,2.968,4.150,1.892,-0.183,-4.63,-2.07,-3.07
2020-06-29 10:43:37,0.062,-0.149,2.910,2.319,1.770,-0.977,-4.61,-2.05,-3.08
2020-06-29 10:43:37,0.073,-0.165,2.895,-0.183,0.610,-1.587,-4.59,-2.04,-3.10
2020-06-29 10:43:37,0.144,-0.191,2.934,-5.066,-0.244,-1.160,-4.63,-2.03,-3.11
2020-06-29 10:43:37,0.221,-0.233,2.973,-6.775,-1.587,-0.732,-4.69,-2.06,-3.11
2020-06-29 10:43:37,0.213,-0.302,2.951,-4.578,-2.258,0.366,-4.73,-2.10,-3.11
2020-06-29 10:43:37,0.137,-0.287,2.897,-1.526,-1.770,1.221,-4.76,-2.14,-3.10
2020-06-29 10:43:37,0.054,-0.256,2.908,1.892,-0.854,1.526,-4.75,-2.15,-3.08
2020-06-29 10:43:37,0.021,-0.302,2.958,3.174,0.732,1.709,-4.72,-2.13,-3.07
2020-06-29 10:43:37,0.064,-0.261,2.966,2.869,1.709,0.671,-4.70,-2.10,-3.06
2020-06-29 10:43:37,0.092,-0.255,2.977,3.235,1.831,0.000,-4.67,-2.07,-3.06
2020-06-29 10:43:37,0.055,-0.164,2.906,1.221,1.648,-1.099,-4.66,-2.05,-3.07
2020-06-29 10:43:37,0.087,-0.203,2.891,-1.221,0.610,-1.160,-4.66,-2.04,-3.09
2020-06-29 10:43:37,0.159,-0.177,2.938,-5.310,-0.244,-1.038,-4.71,-2.04,-3.09
2020-06-29 10:43:37,0.224,-0.250,2.975,-4.883,-1.221,-0.854,-4.75,-2.06,-3.10
2020-06-29 10:43:37,0.204,-0.308,2.929,-2.930,-2.014,0.183,-4.77,-2.10,-3.10
2020-06-29 10:43:37,0.114,-0.293,2.897,0.183,-1.709,1.099,-4.78,-2.14,-3.09
2020-06-29 10:43:37,0.060,-0.292,2.916,3.479,-0.427,1.099,-4.76,-2.14,-3.08
2020-06-29 10:43:37,0.023,-0.291,2.972,4.272,0.793,0.610,-4.73,-2.12,-3.07
2020-06-29 10:43:37,0.053,-0.248,2.972,4.822,2.075,0.427,-4.69,-2.09,-3.07
2020-06-29 10:43:37,0.104,-0.210,2.953,4.395,2.075,-0.671,-4.65,-2.05,-3.08
2020-06-29 10:43:37,0.050,-0.154,2.901,1.465,1.343,-1.770,-4.63,-2.04,-3.09
2020-06-29 10:43:37,0.100,-0.185,2.896,-1.831,0.549,-1.160,-4.63,-2.03,-3.10
2020-06-29 10:43:37,0.193,-0.191,2.944,-5.554,-0.671,-1.038,-4.67,-2.03,-3.11
2020-06-29 10:43:37,0.231,-0.252,2.985,-5.310,-1.526,-0.732,-4.71,-2.07,-3.12
2020-06-29 10:43:37,0.181,-0.289,2.929,-2.380,-2.014,0.610,-4.74,-2.11,-3.11
2020-06-29 10:43:37,0.102,-0.280,2.897,0.977,-1.648,1.221,-4.74,-2.14,-3.10
2020-06-29 10:43:37,0.058,-0.283,2.922,3.418,-0.732,1.587,-4.71,-2.14,-3.09
2020-06-29 10:43:37,0.024,-0.276,2.982,4.272,0.671,0.977,-4.68,-2.13,-3.08
2020-06-29 10:43:37,0.060,-0.244,2.979,4.578,1.892,0.427,-4.64,-2.09,-3.07
2020-06-29 10:43:37,0.098,-0.180,2.930,4.150,1.770,-0.610,-4.60,-2.07,-3.08
2020-06-29 10:43:37,0.058,-0.129,2.904,1.770,0.977,-1.343,-4.57,-2.05,-3.09
2020-06-29 10:43:37,0.119,-0.166,2.901,-2.197,0.610,-1.282,-4.57,-2.04,-3.11
2020-06-29 10:43:37,0.204,-0.213,2.942,-6.226,-1.099,-0.916,-4.62,-2.05,-3.11
2020-06-29 10:43:37,0.234,-0.262,2.989,-6.531,-1.709,-0.427,-4.68,-2.09,-3.12
2020-06-29 10:43:37,0.178,-0.301,2.936,-3.540,-1.831,1.099,-4.72,-2.13,-3.10
2020-06-29 10:43:37,0.094,-0.261,2.894,-0.183,-1.221,1.282,-4.73,-2.15,-3.09
2020-06-29 10:43:37,0.049,-0.287,2.916,2.441,-0.244,1.770,-4.71,-2.15,-3.08
2020-06-29 10:43:37,0.030,-0.268,2.980,2.686,1.221,1.465,-4.70,-2.13,-3.06
2020-06-29 10:43:37,0.063,-0.275,2.982,3.052,2.014,0.244,-4.67,-2.09,-3.06
2020-06-29 10:43:37,0.081,-0.184,2.921,2.258,1.648,-0.610,-4.65,-2.07,-3.07
2020-06-29 10:43:37,0.065,-0.140,2.898,0.854,0.916,-1.526,-4.63,-2.05,-3.08
2020-06-29 10:43:37,0.131,-0.192,2.905,-2.991,0.549,-1.404,-4.64,-2.04,-3.10
2020-06-29 10:43:37,0.199,-0.189,2.946,-6.287,-1.221,-1.160,-4.70,-2.06,-3.11
2020-06-29 10:43:37,0.225,-0.275,2.973,-4.761,-1.526,-0.732,-4.74,-2.09,-3.11
2020-06-29 10:43:38,0.179,-0.321,2.926,-2.686,-1.709,0.793,-4.77,-2.13,-3.10
2020-06-29 10:43:38,0.075,-0.258,2.903,0.732,-1.160,1.099,-4.77,-2.16,-3.09
2020-06-29 10:43:38,0.052,-0.313,2.921,3.540,0.183,1.343,-4.74,-2.15,-3.08
2020-06-29 10:43:38,0.031,-0.255,2.975,3.357,1.221,0.732,-4.72,-2.13,-3.08
2020-06-29 10:43:38,0.062,-0.259,2.973,4.211,2.197,0.610,-4.69,-2.09,-3.07
2020-06-29 10:43:38,0.053,-0.174,2.889,2.380,1.770,-0.854,-4.66,-2.06,-3.08
2020-06-29 10:43:38,0.067,-0.178,2.889,0.244,0.671,-1.404,-4.65,-2.04,-3.09
2020-06-29 10:43:38,0.129,-0.189,2.933,-4.089,0.244,-0.916,-4.67,-2.04,-3.10
2020-06-29 10:43:38,0.211,-0.208,2.965,-5.676,-1.160,-0.671,-4.72,-2.05,-3.11
2020-06-29 10:43:38,0.232,-0.275,2.956,-3.723,-1.892,-0.427,-4.75,-2.09,-3.11
2020-06-29 10:43:38,0.176,-0.315,2.907,-1.038,-1.831,0.793,-4.77,-2.13,-3.10
2020-06-29 10:43:38,0.075,-0.272,2.912,2.197,-1.282,1.404,-4.76,-2.16,-3.09
2020-06-29 10:43:38,0.053,-0.316,2.949,4.395,0.000,1.099,-4.72,-2.15,-3.08
2020-06-29 10:43:38,0.045,-0.251,2.982,4.517,1.099,0.244,-4.69,-2.13,-3.08
2020-06-29 10:43:38,0.057,-0.245,2.964,5.371,2.075,0.244,-4.64,-2.09,-3.08
2020-06-29 10:43:38,0.055,-0.165,2.913,3.235,1.648,-1.282,-4.61,-2.07,-3.09
2020-06-29 10:43:38,0.064,-0.171,2.895,0.366,0.671,-1.587,-4.59,-2.05,-3.10
2020-06-29 10:43:38,0.121,-0.190,2.941,-4.211,0.000,-1.343,-4.62,-2.05,-3.12
2020-06-29 10:43:38,0.218,-0.242,2.983,-6.592,-1.099,-0.916,-4.67,-2.06,-3.13
2020-06-29 10:43:38,0.223,-0.270,2.969,-4.944,-2.075,0.000,-4.72,-2.10,-3.13
2020-06-29 10:43:38,0.171,-0.312,2.901,-1.221,-1.770,1.038,-4.74,-2.14,-3.11
2020-06-29 10:43:38,0.057,-0.256,2.911,1.404,-0.854,1.221,-4.74,-2.16,-3.10
2020-06-29 10:43:38,0.039,-0.310,2.949,3.418,0.549,1.892,-4.71,-2.14,-3.08
2020-06-29 10:43:38,0.059,-0.258,2.981,3.235,1.343,0.671,-4.69,-2.11,-3.08
2020-06-29 10:43:38,0.062,-0.274,2.965,3.967,2.075,-0.244,-4.66,-2.09,-3.08
2020-06-29 10:43:38,0.063,-0.155,2.934,2.441,1.709,-0.916,-4.64,-2.06,-3.09
2020-06-29 10:43:38,0.068,-0.171,2.896,0.305,0.854,-1.404,-4.62,-2.04,-3.10
2020-06-29 10:43:38,0.133,-0.204,2.921,-4.700,-0.244,-1.343,-4.65,-2.04,-3.12
2020-06-29 10:43:38,0.227,-0.231,2.975,-6.958,-1.343,-1.038,-4.71,-2.06,-3.13
2020-06-29 10:43:38,0.227,-0.292,2.971,-5.066,-2.075,0.244,-4.76,-2.10,-3.13
2020-06-29 10:43:38,0.162,-0.308,2.897,-2.014,-1.648,1.160,-4.79,-2.14,-3.11
2020-06-29 10:43:38,0.064,-0.262,2.906,1.160,-0.916,1.465,-4.79,-2.16,-3.09
2020-06-29 10:43:38,0.029,-0.304,2.945,2.991,0.793,1.648,-4.77,-2.14,-3.08
2020-06-29 10:43:38,0.059,-0.275,2.972,2.747,1.587,0.916,-4.75,-2.11,-3.07
2020-06-29 10:43:38,0.069,-0.274,2.967,3.052,2.014,0.183,-4.72,-2.08,-3.07
2020-06-29 10:43:38,0.066,-0.181,2.921,1.465,1.648,-1.038,-4.72,-2.05,-3.08
2020-06-29 10:43:38,0.077,-0.202,2.898,-0.793,0.732,-1.221,-4.71,-2.04,-3.10
2020-06-29 10:43:38,0.139,-0.193,2.934,-5.005,-0.183,-0.977,-4.75,-2.04,-3.10
2020-06-29 10:43:38,0.219,-0.231,2.967,-5.371,-1.221,-0.854,-4.80,-2.06,-3.11
2020-06-29 10:43:38,0.221,-0.308,2.948,-3.296,-1.953,0.000,-4.83,-2.10,-3.11
2020-06-29 10:43:38,0.137,-0.296,2.893,-0.610,-1.648,0.854,-4.84,-2.14,-3.10
2020-06-29 10:43:38,0.074,-0.298,2.911,2.930,-0.732,1.282,-4.82,-2.15,-3.09
2020-06-29 10:43:38,0.026,-0.293,2.962,3.967,0.610,0.732,-4.80,-2.14,-3.08
2020-06-29 10:43:38,0.053,-0.261,2.968,4.761,1.831,0.488,-4.76,-2.10,-3.08
2020-06-29 10:43:38,0.087,-0.230,2.957,4.456,2.014,-0.244,-4.72,-2.07,-3.08
2020-06-29 10:43:38,0.051,-0.168,2.899,1.953,1.465,-1.648,-4.70,-2.05,-3.10
2020-06-29 10:43:38,0.090,-0.188,2.897,-1.343,0.549,-1.221,-4.69,-2.04,-3.11
2020-06-29 10:43:38,0.174,-0.194,2.952,-5.371,-0.366,-1.160,-4.74,-2.04,-3.13
2020-06-29 10:43:38,0.221,-0.233,2.979,-5.737,-1.343,-0.732,-4.78,-2.07,-3.13
2020-06-29 10:43:38,0.198,-0.285,2.932,-2.869,-1.953,0.305,-4.81,-2.11,-3.13
2020-06-29 10:43:38,0.119,-0.283,2.895,0.183,-1.709,1.099,-4.81,-2.14,-3.11
2020-06-29 10:43:38,0.068,-0.279,2.926,2.869,-0.854,1.465,-4.80,-2.15,-3.10
2020-06-29 10:43:38,0.019,-0.285,2.980,3.967,0.549,1.038,-4.76,-2.14,-3.09
2020-06-29 10:43:38,0.064,-0.252,2.977,4.578,1.709,0.366,-4.72,-2.10,-3.09
2020-06-29 10:43:38,0.104,-0.207,2.964,4.517,1.709,-0.488,-4.68,-2.08,-3.09
2020-06-29 10:43:38,0.049,-0.145,2.902,2.319,1.404,-1.526,-4.65,-2.06,-3.11
2020-06-29 10:43:38,0.099,-0.160,2.892,-1.160,0.488,-1.465,-4.64,-2.05,-3.13
2020-06-29 10:43:38,0.188,-0.200,2.942,-5.737,-0.732,-1.160,-4.69,-2.05,-3.14
2020-06-29 10:43:38,0.227,-0.250,2.987,-7.019,-1.648,-0.610,-4.75,-2.09,-3.14
2020-06-29 10:43:38,0.194,-0.291,2.938,-4.333,-2.136,0.732,-4.79,-2.13,-3.13
2020-06-29 10:43:38,0.121,-0.275,2.894,-0.793,-1.648,1.221,-4.81,-2.16,-3.11
2020-06-29 10:43:38,0.052,-0.271,2.911,1.831,-0.549,1.648,-4.80,-2.17,-3.10
2020-06-29 10:43:38,0.020,-0.287,2.975,2.747,0.977,1.770,-4.77,-2.14,-3.08
2020-06-29 10:43:38,0.067,-0.271,2.976,2.808,1.831,0.366,-4.75,-2.11,-3.08
2020-06-29 10:43:38,0.104,-0.219,2.962,2.686,1.648,-0.427,-4.73,-2.09,-3.09
2020-06-29 10:43:38,0.059,-0.127,2.910,1.160,1.282,-1.099,-4.71,-2.07,-3.10
2020-06-29 10:43:38,0.104,-0.195,2.890,-1.709,0.610,-1.465,-4.71,-2.06,-3.11
2020-06-29 10:43:38,0.181,-0.188,2.936,-6.104,-0.854,-0.977,-4.76,-2.07,-3.12
2020-06-29 10:43:38,0.227,-0.250,2.983,-5.432,-1.404,-0.732,-4.80,-2.10,-3.13
2020-06-29 10:43:38,0.198,-0.333,2.930,-3.174,-1.892,0.549,-4.83,-2.14,-3.12
2020-06-29 10:43:38,0.097,-0.267,2.899,-0.305,-1.526,1.099,-4.86,-2.17,-3.11
2020-06-29 10:43:38,0.058,-0.310,2.911,3.418,0.000,1.404,-4.82,-2.16,-3.09
2020-06-29 10:43:38,0.026,-0.278,2.972,3.418,0.977,0.732,-4.80,-2.14,-3.09
2020-06-29 10:43:38,0.058,-0.260,2.975,4.272,2.197,0.549,-4.77,-2.10,-3.09
2020-06-29 10:43:38,0.086,-0.199,2.927,3.113,2.014,-0.671,-4.74,-2.08,-3.09
2020-06-29 10:43:38,0.061,-0.155,2.902,0.854,1.099,-1.587,-4.72,-2.06,-3.11
2020-06-29 10:43:38,0.110,-0.189,2.907,-2.930,0.610,-1.038,-4.73,-2.05,-3.12
2020-06-29 10:43:38,0.198,-0.199,2.948,-5.859,-0.854,-0.916,-4.78,-2.06,-3.13
2020-06-29 10:43:38,0.229,-0.261,2.979,-4.578,-1.587,-0.549,-4.82,-2.09,-3.13
2020-06-29 10:43:38,0.177,-0.312,2.927,-1.831,-1.709,0.610,-4.83,-2.13,-3.13
2020-06-29 10:43:38,0.082,-0.273,2.903,1.404,-1.526,1.343,-4.83,-2.16,-3.11
2020-06-29 10:43:38,0.059,-0.311,2.936,4.089,-0.427,1.404,-4.80,-2.16,-3.10
2020-06-29 10:43:38,0.029,-0.260,2.988,4.517,0.793,0.427,-4.77,-2.14,-3.09
2020-06-29 10:43:38,0.061,-0.251,2.977,5.554,2.014,0.366,-4.71,-2.10,-3.09
2020-06-29 10:43:38,0.061,-0.164,2.890,3.967,1.709,-0.916,-4.67,-2.08,-3.10
2020-06-29 10:43:38,0.064,-0.132,2.896,1.709,0.793,-1.587,-4.65,-2.06,-3.12
2020-06-29 10:43:38,0.115,-0.162,2.924,-3.052,0.549,-1.343,-4.65,-2.05,-3.13
2020-06-29 10:43:38,0.209,-0.228,2.954,-6.531,-1.160,-0.793,-4.70,-2.07,-3.14
2020-06-29 10:43:38,0.238,-0.254,2.979,-6.165,-2.075,0.000,-4.76,-2.10,-3.14
2020-06-29 10:43:38,0.180,-0.313,2.923,-2.380,-1.770,1.038,-4.79,-2.14,-3.13
2020-06-29 10:43:38,0.066,-0.249,2.905,0.427,-1.160,1.282,-4.80,-2.17,-3.11
2020-06-29 10:43:38,0.053,-0.296,2.933,3.113,0.000,1.953,-4.77,-2.16,-3.09
2020-06-29 10:43:38,0.039,-0.258,2.983,3.113,0.916,0.977,-4.75,-2.14,-3.08
2020-06-29 10:43:38,0.068,-0.267,2.974,3.845,2.075,0.000,-4.71,-2.10,-3.09
2020-06-29 10:43:38,0.043,-0.167,2.901,2.808,1.587,-0.793,-4.69,-2.08,-3.09
2020-06-29 10:43:38,0.064,-0.141,2.877,1.282,1.038,-1.343,-4.66,-2.06,-3.11
2020-06-29 10:43:38,0.140,-0.186,2.913,-3.540,0.183,-1.648,-4.67,-2.05,-3.13
2020-06-29 10:43:38,0.209,-0.216,2.964,-6.958,-1.160,-1.038,-4.74,-2.07,-3.14
2020-06-29 10:43:38,0.228,-0.288,2.976,-5.737,-1.831,0.000,-4.78,-2.10,-3.13
2020-06-29 10:43:39,0.176,-0.322,2.917,-2.991,-1.709,1.038,-4.82,-2.14,-3.12
2020-06-29 10:43:39,0.063,-0.258,2.905,0.305,-1.038,1.282,-4.83,-2.16,-3.11
2020-06-29 10:43:39,0.039,-0.300,2.928,3.052,0.244,1.892,-4.81,-2.15,-3.09
2020-06-29 10:43:39,0.049,-0.269,2.976,2.808,1.160,0.977,-4.79,-2.13,-3.08
2020-06-29 10:43:39,0.067,-0.282,2.971,3.418,2.014,0.244,-4.76,-2.09,-3.08
2020-06-29 10:43:39,0.067,-0.179,2.935,1.892,1.587,-0.854,-4.75,-2.07,-3.09
2020-06-29 10:43:39,0.058,-0.193,2.890,0.000,0.916,-1.343,-4.74,-2.05,-3.10
2020-06-29 10:43:39,0.143,-0.212,2.921,-4.333,0.000,-0.916,-4.77,-2.05,-3.11
2020-06-29 10:43:39,0.219,-0.209,2.975,-5.859,-1.160,-0.977,-4.82,-2.07,-3.12
2020-06-29 10:43:39,0.226,-0.310,2.964,-3.601,-1.709,0.000,-4.84,-2.10,-3.12
2020-06-29 10:43:39,0.163,-0.307,2.900,-1.343,-1.892,0.854,-4.87,-2.15,-3.11
2020-06-29 10:43:39,0.077,-0.304,2.909,2.502,-1.099,1.282,-4.86,-2.16,-3.10
2020-06-29 10:43:39,0.033,-0.297,2.951,3.967,0.244,0.977,-4.83,-2.16,-3.09
2020-06-29 10:43:39,0.052,-0.263,2.975,4.883,1.404,0.244,-4.79,-2.13,-3.09
2020-06-29 10:43:39,0.065,-0.243,2.958,5.066,2.075,0.000,-4.75,-2.09,-3.09
2020-06-29 10:43:39,0.068,-0.184,2.916,2.808,1.587,-1.526,-4.72,-2.07,-3.10
2020-06-29 10:43:39,0.081,-0.174,2.906,-0.488,0.671,-1.526,-4.71,-2.06,-3.12
2020-06-29 10:43:39,0.143,-0.207,2.944,-4.639,0.000,-1.343,-4.74,-2.05,-3.13
2020-06-29 10:43:39,0.216,-0.233,2.977,-6.287,-1.160,-0.793,-4.80,-2.08,-3.14
2020-06-29 10:43:39,0.219,-0.282,2.954,-3.784,-2.014,0.000,-4.83,-2.11,-3.14
2020-06-29 10:43:39,0.148,-0.285,2.893,-0.427,-1.648,0.793,-4.84,-2.15,-3.13
2020-06-29 10:43:39,0.069,-0.291,2.914,2.441,-0.977,1.526,-4.83,-2.17,-3.11
2020-06-29 10:43:39,0.023,-0.287,2.966,3.784,0.427,1.465,-4.80,-2.15,-3.10
2020-06-29 10:43:39,0.066,-0.278,2.973,4.578,1.526,0.183,-4.76,-2.12,-3.10
2020-06-29 10:43:39,0.076,-0.235,2.966,4.517,1.709,-0.244,-4.72,-2.10,-3.10
2020-06-29 10:43:39,0.056,-0.168,2.906,2.930,1.587,-1.282,-4.69,-2.08,-3.11
2020-06-29 10:43:39,0.077,-0.151,2.893,-0.305,0.488,-1.526,-4.68,-2.07,-3.13
2020-06-29 10:43:39,0.149,-0.195,2.943,-5.066,-0.305,-1.404,-4.71,-2.06,-3.15
2020-06-29 10:43:39,0.217,-0.242,2.978,-7.324,-1.465,-0.488,-4.77,-2.09,-3.15
2020-06-29 10:43:39,0.210,-0.292,2.953,-5.066,-2.258,0.610,-4.82,-2.13,-3.14
2020-06-29 10:43:39,0.139,-0.292,2.900,-1.526,-1.648,1.160,-4.84,-2.16,-3.13
2020-06-29 10:43:39,0.056,-0.268,2.911,1.404,-0.732,1.770,-4.84,-2.18,-3.11
2020-06-29 10:43:39,0.012,-0.280,2.961,2.808,0.732,2.014,-4.82,-2.15,-3.09
2020-06-29 10:43:39,0.068,-0.277,2.970,2.869,1.770,0.610,-4.80,-2.11,-3.09
2020-06-29 10:43:39,0.095,-0.234,2.979,2.869,1.587,0.000,-4.77,-2.09,-3.09
2020-06-29 10:43:39,0.068,-0.177,2.908,1.709,1.648,-1.038,-4.75,-2.08,-3.10
2020-06-29 10:43:39,0.076,-0.182,2.885,-1.160,0.427,-1.526,-4.75,-2.07,-3.11
2020-06-29 10:43:39,0.162,-0.214,2.940,-5.371,-0.244,-1.160,-4.80,-2.06,-3.13
2020-06-29 10:43:39,0.221,-0.227,2.980,-5.981,-1.343,-0.732,-4.84,-2.09,-3.13
2020-06-29 10:43:39,0.212,-0.338,2.938,-3.235,-1.770,0.000,-4.87,-2.13,-3.13
2020-06-29 10:43:39,0.114,-0.281,2.899,-0.854,-1.648,1.099,-4.90,-2.16,-3.12
2020-06-29 10:43:39,0.065,-0.303,2.910,3.113,-0.366,1.526,-4.87,-2.16,-3.10
2020-06-29 10:43:39,0.017,-0.280,2.969,3.540,0.671,0.854,-4.85,-2.15,-3.09
2020-06-29 10:43:39,0.057,-0.273,2.975,4.395,2.014,0.427,-4.81,-2.11,-3.09
2020-06-29 10:43:39,0.097,-0.193,2.955,3.784,1.770,-0.183,-4.78,-2.08,-3.09
2020-06-29 10:43:39,0.067,-0.176,2.902,1.709,1.343,-1.526,-4.75,-2.07,-3.11
2020-06-29 10:43:39,0.097,-0.193,2.893,-2.319,0.427,-1.099,-4.76,-2.05,-3.12
2020-06-29 10:43:39,0.192,-0.190,2.944,-5.432,-0.488,-0.977,-4.81,-2.06,-3.13
2020-06-29 10:43:39,0.226,-0.249,2.982,-4.822,-1.465,-0.366,-4.84,-2.09,-3.14
2020-06-29 10:43:39,0.192,-0.304,2.924,-2.197,-1.709,0.305,-4.86,-2.13,-3.13
2020-06-29 10:43:39,0.100,-0.280,2.895,1.038,-1.770,1.282,-4.86,-2.16,-3.11
2020-06-29 10:43:39,0.063,-0.299,2.924,4.028,-0.427,1.343,-4.83,-2.16,-3.10
2020-06-29 10:43:39,0.016,-0.278,2.983,4.700,0.671,0.610,-4.80,-2.15,-3.10
2020-06-29 10:43:39,0.057,-0.235,2.981,5.554,2.014,0.000,-4.75,-2.11,-3.10
2020-06-29 10:43:39,0.086,-0.177,2.922,4.883,1.648,-0.916,-4.70,-2.08,-3.11
2020-06-29 10:43:39,0.064,-0.137,2.908,2.075,0.977,-1.648,-4.66,-2.07,-3.13
2020-06-29 10:43:39,0.106,-0.145,2.904,-2.136,0.488,-1.526,-4.66,-2.06,-3.14
2020-06-29 10:43:39,0.204,-0.231,2.943,-5.920,-0.916,-1.099,-4.70,-2.07,-3.15
2020-06-29 10:43:39,0.236,-0.240,2.991,-6.775,-1.831,0.000,-4.77,-2.11,-3.15
2020-06-29 10:43:39,0.188,-0.288,2.936,-2.869,-1.709,0.671,-4.80,-2.15,-3.14
2020-06-29 10:43:39,0.087,-0.282,2.900,0.000,-1.343,1.221,-4.80,-2.18,-3.13
2020-06-29 10:43:39,0.053,-0.267,2.927,2.625,-0.244,2.014,-4.78,-2.17,-3.11
2020-06-29 10:43:39,0.030,-0.289,2.991,3.479,1.038,1.343,-4.76,-2.15,-3.10
2020-06-29 10:43:39,0.063,-0.256,2.980,3.479,2.014,0.000,-4.73,-2.11,-3.10
2020-06-29 10:43:39,0.068,-0.186,2.912,3.296,1.587,-0.305,-4.70,-2.09,-3.10
2020-06-29 10:43:39,0.074,-0.119,2.895,1.587,1.099,-1.343,-4.67,-2.07,-3.11
2020-06-29 10:43:39,0.133,-0.197,2.905,-2.625,0.427,-1.648,-4.67,-2.06,-3.13
2020-06-29 10:43:39,0.195,-0.184,2.942,-6.897,-1.099,-0.977,-4.73,-2.08,-3.14
2020-06-29 10:43:39,0.231,-0.290,2.982,-5.737,-1.770,0.000,-4.78,-2.11,-3.14
2020-06-29 10:43:39,0.183,-0.304,2.928,-3.540,-1.709,0.793,-4.82,-2.15,-3.13
2020-06-29 10:43:39,0.183,-0.304,2.928,0.000,-1.282,1.282,-4.83,-2.18,-3.11
2020-06-29 10:43:39,0.080,-0.273,2.898,0.000,-1.282,1.282,-4.84,-2.20,-3.10
2020-06-29 10:43:39,0.042,-0.279,2.918,2.808,0.000,1.831,-4.82,-2.20,-3.09
2020-06-29 10:43:39,0.036,-0.292,2.974,3.174,1.038,1.038,-4.80,-2.17,-3.08
2020-06-29 10:43:39,0.064,-0.250,2.977,3.235,1.953,0.305,-4.77,-2.14,-3.08
2020-06-29 10:43:39,0.054,-0.205,2.901,2.625,1.648,-0.671,-4.75,-2.11,-3.08
2020-06-29 10:43:39,0.065,-0.167,2.882,0.366,0.854,-1.282,-4.74,-2.09,-3.10
2020-06-29 10:43:39,0.148,-0.230,2.924,-3.723,0.244,-1.160,-4.76,-2.08,-3.11
2020-06-29 10:43:39,0.200,-0.179,2.969,-6.042,-1.038,-0.793,-4.81,-2.10,-3.11
2020-06-29 10:43:39,0.230,-0.310,2.962,-3.418,-1.404,-0.183,-4.83,-2.14,-3.11
2020-06-29 10:43:39,0.174,-0.295,2.907,-1.709,-1.770,0.549,-4.86,-2.18,-3.11
2020-06-29 10:43:39,0.082,-0.300,2.911,2.380,-1.099,1.526,-4.85,-2.20,-3.09
2020-06-29 10:43:39,0.040,-0.289,2.941,4.272,0.000,0.916,-4.82,-2.19,-3.08
2020-06-29 10:43:39,0.045,-0.280,2.981,5.066,1.221,0.244,-4.77,-2.16,-3.08
2020-06-29 10:43:39,0.051,-0.223,2.965,5.432,2.197,0.244,-4.73,-2.13,-3.08
2020-06-29 10:43:39,0.071,-0.197,2.922,3.723,1.831,-1.465,-4.69,-2.10,-3.10
2020-06-29 10:43:39,0.070,-0.160,2.898,0.000,0.732,-1.648,-4.67,-2.09,-3.11
2020-06-29 10:43:39,0.132,-0.229,2.941,-3.906,0.000,-1.343,-4.70,-2.08,-3.13
2020-06-29 10:43:39,0.214,-0.224,2.987,-6.714,-0.977,-0.732,-4.76,-2.10,-3.14
2020-06-29 10:43:39,0.231,-0.279,2.969,-4.395,-1.953,0.000,-4.80,-2.14,-3.13
2020-06-29 10:43:39,0.171,-0.292,2.894,-0.793,-1.770,0.854,-4.82,-2.18,-3.12
2020-06-29 10:43:39,0.069,-0.275,2.908,2.075,-1.099,1.404,-4.81,-2.20,-3.11
2020-06-29 10:43:39,0.023,-0.290,2.957,3.967,0.244,1.770,-4.77,-2.19,-3.09
2020-06-29 10:43:39,0.063,-0.267,2.985,4.456,1.282,0.244,-4.74,-2.15,-3.09
2020-06-29 10:43:39,0.059,-0.239,2.965,4.944,1.831,-0.366,-4.69,-2.13,-3.09
2020-06-29 10:43:39,0.072,-0.180,2.920,3.662,1.770,-0.977,-4.65,-2.10,-3.10
2020-06-29 10:43:39,0.074,-0.136,2.896,0.549,0.732,-1.587,-4.64,-2.09,-3.12
2020-06-29 10:43:39,0.132,-0.229,2.932,-4.089,0.000,-1.465,-4.66,-2.08,-3.14
2020-06-29 10:43:40,0.219,-0.228,2.975,-7.690,-1.404,-0.793,-4.73,-2.10,-3.14
2020-06-29 10:43:40,0.232,-0.308,2.978,-5.432,-2.075,0.549,-4.78,-2.14,-3.14
2020-06-29 10:43:40,0.156,-0.291,2.903,-2.319,-1.587,1.282,-4.82,-2.18,-3.12
2020-06-29 10:43:40,0.066,-0.270,2.904,1.099,-0.793,1.465,-4.82,-2.20,-3.10
2020-06-29 10:43:40,0.011,-0.285,2.945,2.808,0.610,2.197,-4.80,-2.18,-3.09
2020-06-29 10:43:40,0.061,-0.275,2.970,2.930,1.648,0.793,-4.77,-2.14,-3.08
2020-06-29 10:43:40,0.075,-0.253,2.971,2.991,1.709,0.000,-4.75,-2.11,-3.08
2020-06-29 10:43:40,0.080,-0.187,2.917,1.892,1.709,-1.099,-4.73,-2.09,-3.09
2020-06-29 10:43:40,0.069,-0.177,2.886,-0.549,0.610,-1.343,-4.72,-2.08,-3.10
2020-06-29 10:43:40,0.153,-0.229,2.936,-4.944,0.000,-1.160,-4.76,-2.08,-3.12
2020-06-29 10:43:40,0.213,-0.205,2.976,-6.287,-1.343,-0.916,-4.82,-2.10,-3.13
2020-06-29 10:43:40,0.228,-0.339,2.951,-3.418,-1.648,0.183,-4.84,-2.14,-3.12
2020-06-29 10:43:40,0.129,-0.277,2.896,-1.465,-1.709,1.038,-4.88,-2.18,-3.11
2020-06-29 10:43:40,0.080,-0.306,2.906,2.869,-0.671,1.404,-4.86,-2.18,-3.10
2020-06-29 10:43:40,0.008,-0.271,2.953,3.479,0.366,0.793,-4.83,-2.17,-3.09
2020-06-29 10:43:40,0.057,-0.276,2.967,4.517,1.953,0.488,-4.79,-2.13,-3.09
2020-06-29 10:43:40,0.095,-0.205,2.966,4.028,1.770,0.000,-4.76,-2.10,-3.09
2020-06-29 10:43:40,0.075,-0.197,2.897,2.014,1.526,-1.648,-4.73,-2.09,-3.10
2020-06-29 10:43:40,0.083,-0.198,2.893,-1.770,0.244,-1.099,-4.74,-2.08,-3.11
2020-06-29 10:43:40,0.184,-0.214,2.950,-5.249,0.000,-0.916,-4.78,-2.08,-3.13
2020-06-29 10:43:40,0.206,-0.222,2.985,-5.310,-1.343,-0.427,-4.83,-2.10,-3.13
2020-06-29 10:43:40,0.207,-0.311,2.928,-2.258,-1.465,0.305,-4.84,-2.14,-3.13
2020-06-29 10:43:40,0.107,-0.267,2.891,0.488,-1.892,1.343,-4.85,-2.18,-3.11
2020-06-29 10:43:40,0.072,-0.298,2.920,4.028,-0.488,1.526,-4.82,-2.18,-3.09
2020-06-29 10:43:40,0.003,-0.269,2.977,4.578,0.305,0.549,-4.78,-2.16,-3.09
2020-06-29 10:43:40,0.063,-0.243,2.972,5.737,1.892,0.183,-4.73,-2.13,-3.09
2020-06-29 10:43:40,0.095,-0.176,2.938,5.127,1.526,-0.671,-4.67,-2.10,-3.10
2020-06-29 10:43:40,0.073,-0.160,2.905,2.625,1.282,-1.587,-4.64,-2.09,-3.11
2020-06-29 10:43:40,0.104,-0.139,2.898,-1.648,0.244,-1.526,-4.64,-2.08,-3.13
2020-06-29 10:43:40,0.195,-0.244,2.943,-5.493,-0.732,-1.282,-4.67,-2.09,-3.14
2020-06-29 10:43:40,0.221,-0.228,2.995,-7.385,-1.648,0.000,-4.75,-2.12,-3.14
2020-06-29 10:43:40,0.197,-0.283,2.941,-3.357,-1.587,0.549,-4.77,-2.16,-3.13
2020-06-29 10:43:40,0.099,-0.274,2.894,-0.366,-1.465,1.221,-4.78,-2.19,-3.12
2020-06-29 10:43:40,0.055,-0.258,2.917,2.380,-0.305,1.892,-4.77,-2.19,-3.10
2020-06-29 10:43:40,0.015,-0.272,2.978,3.601,0.916,1.587,-4.74,-2.16,-3.08
2020-06-29 10:43:40,0.063,-0.241,2.974,3.662,2.075,-0.366,-4.71,-2.13,-3.09
2020-06-29 10:43:40,0.083,-0.188,2.927,3.662,1.526,-0.305,-4.67,-2.10,-3.09
2020-06-29 10:43:40,0.092,-0.120,2.911,1.892,1.221,-1.343,-4.64,-2.09,-3.11
2020-06-29 10:43:40,0.127,-0.196,2.901,-1.831,0.427,-1.770,-4.64,-2.08,-3.13
2020-06-29 10:43:40,0.189,-0.214,2.937,-6.653,-0.854,-0.916,-4.69,-2.09,-3.14
2020-06-29 10:43:40,0.222,-0.255,2.984,-6.409,-1.587,0.000,-4.75,-2.13,-3.13
2020-06-29 10:43:40,0.200,-0.317,2.939,-3.601,-1.648,0.793,-4.79,-2.16,-3.13
2020-06-29 10:43:40,0.076,-0.266,2.898,-0.732,-1.465,1.404,-4.81,-2.19,-3.11
2020-06-29 10:43:40,0.047,-0.274,2.907,2.930,0.000,1.953,-4.78,-2.18,-3.09
2020-06-29 10:43:40,0.015,-0.271,2.968,3.174,0.916,1.038,-4.76,-2.16,-3.08
2020-06-29 10:43:40,0.061,-0.245,2.970,3.479,2.075,0.427,-4.73,-2.12,-3.08
2020-06-29 10:43:40,0.061,-0.182,2.902,2.808,1.648,-0.488,-4.70,-2.09,-3.08
2020-06-29 10:43:40,0.088,-0.165,2.888,1.038,1.038,-1.404,-4.68,-2.08,-3.10
2020-06-29 10:43:40,0.138,-0.223,2.917,-3.418,0.244,-0.977,-4.70,-2.07,-3.11
2020-06-29 10:43:40,0.191,-0.174,2.953,-6.104,-0.732,-0.977,-4.76,-2.09,-3.12
2020-06-29 10:43:40,0.227,-0.306,2.964,-3.845,-1.343,0.000,-4.78,-2.11,-3.11
2020-06-29 10:43:40,0.182,-0.291,2.919,-2.197,-1.526,0.549,-4.81,-2.15,-3.11
2020-06-29 10:43:40,0.087,-0.301,2.906,1.770,-1.282,1.587,-4.81,-2.18,-3.09
2020-06-29 10:43:40,0.036,-0.286,2.928,3.967,0.000,1.038,-4.78,-2.17,-3.08
2020-06-29 10:43:40,0.024,-0.271,2.978,4.883,1.160,0.244,-4.74,-2.15,-3.08
2020-06-29 10:43:40,0.055,-0.214,2.964,5.371,2.197,0.244,-4.69,-2.11,-3.08
2020-06-29 10:43:40,0.073,-0.188,2.917,4.028,1.831,-1.465,-4.64,-2.08,-3.10
2020-06-29 10:43:40,0.073,-0.187,2.894,0.488,0.916,-1.465,-4.63,-2.07,-3.11
2020-06-29 10:43:40,0.129,-0.204,2.938,-3.906,0.000,-1.221,-4.66,-2.06,-3.13
2020-06-29 10:43:40,0.206,-0.240,2.979,-5.981,-0.854,-1.038,-4.71,-2.08,-3.13
2020-06-29 10:43:40,0.227,-0.278,2.971,-4.639,-1.709,0.366,-4.75,-2.11,-3.13
2020-06-29 10:43:40,0.184,-0.297,2.902,-0.916,-1.648,0.916,-4.77,-2.15,-3.12
2020-06-29 10:43:40,0.077,-0.279,2.905,1.953,-1.221,1.221,-4.76,-2.18,-3.10
2020-06-29 10:43:40,0.019,-0.286,2.945,3.906,0.000,1.709,-4.73,-2.16,-3.09
2020-06-29 10:43:40,0.051,-0.242,2.980,4.456,1.282,0.427,-4.70,-2.13,-3.09
2020-06-29 10:43:40,0.062,-0.241,2.960,4.883,1.831,-0.488,-4.65,-2.10,-3.09
2020-06-29 10:43:40,0.081,-0.171,2.909,3.418,1.709,-1.038,-4.61,-2.08,-3.10
2020-06-29 10:43:40,0.086,-0.175,2.897,0.549,0.488,-1.526,-4.59,-2.07,-3.12
2020-06-29 10:43:40,0.136,-0.206,2.942,-4.333,-0.244,-1.343,-4.63,-2.07,-3.13
2020-06-29 10:43:40,0.212,-0.236,2.976,-7.019,-1.282,-0.854,-4.69,-2.09,-3.14
2020-06-29 10:43:40,0.227,-0.299,2.967,-5.310,-2.014,0.610,-4.74,-2.13,-3.13
2020-06-29 10:43:40,0.164,-0.291,2.905,-2.136,-1.648,1.160,-4.77,-2.16,-3.12
2020-06-29 10:43:40,0.069,-0.271,2.903,1.160,-0.854,1.343,-4.77,-2.18,-3.10
2020-06-29 10:43:40,0.001,-0.281,2.940,2.625,0.488,2.014,-4.75,-2.17,-3.09
2020-06-29 10:43:40,0.044,-0.253,2.964,2.869,1.709,0.732,-4.73,-2.13,-3.08
2020-06-29 10:43:40,0.088,-0.242,2.967,2.930,1.831,-0.305,-4.70,-2.10,-3.08
2020-06-29 10:43:40,0.083,-0.183,2.906,1.709,1.648,-1.038,-4.68,-2.08,-3.09
2020-06-29 10:43:40,0.084,-0.221,2.893,-0.916,0.366,-1.221,-4.68,-2.07,-3.11
2020-06-29 10:43:40,0.156,-0.199,2.950,-5.249,-0.183,-0.977,-4.73,-2.07,-3.11
2020-06-29 10:43:40,0.210,-0.223,2.973,-5.493,-1.221,-1.038,-4.77,-2.09,-3.13
2020-06-29 10:43:40,0.214,-0.321,2.941,-3.357,-1.709,0.427,-4.80,-2.13,-3.12
2020-06-29 10:43:40,0.138,-0.280,2.896,-0.916,-1.648,1.160,-4.83,-2.16,-3.11
2020-06-29 10:43:40,0.073,-0.308,2.913,2.808,-0.732,1.221,-4.81,-2.18,-3.09
2020-06-29 10:43:40,-0.005,-0.261,2.954,3.296,0.488,0.732,-4.78,-2.16,-3.09
2020-06-29 10:43:40,0.035,-0.248,2.964,4.517,1.953,0.671,-4.74,-2.12,-3.08
2020-06-29 10:43:40,0.104,-0.184,2.957,3.784,2.014,-0.366,-4.71,-2.09,-3.09
2020-06-29 10:43:40,0.092,-0.201,2.906,1.404,1.343,-1.709,-4.68,-2.08,-3.10
2020-06-29 10:43:40,0.110,-0.218,2.896,-2.441,0.000,-0.854,-4.70,-2.07,-3.11
2020-06-29 10:43:40,0.187,-0.211,2.954,-5.188,-0.366,-0.854,-4.75,-2.08,-3.13
2020-06-29 10:43:40,0.213,-0.243,2.975,-4.578,-1.221,-0.549,-4.78,-2.10,-3.13
2020-06-29 10:43:40,0.200,-0.291,2.927,-1.892,-1.648,0.000,-4.80,-2.14,-3.13
2020-06-29 10:43:40,0.119,-0.292,2.885,1.282,-1.831,1.282,-4.80,-2.18,-3.11
2020-06-29 10:43:40,0.057,-0.310,2.933,3.723,-0.671,1.282,-4.77,-2.18,-3.10
2020-06-29 10:43:40,-0.006,-0.250,2.976,4.456,0.610,0.244,-4.74,-2.16,-3.10
2020-06-29 10:43:40,0.036,-0.219,2.969,5.737,2.014,0.000,-4.68,-2.13,-3.10
2020-06-29 10:43:40,0.074,-0.146,2.897,4.700,1.953,-0.916,-4.63,-2.09,-3.11
2020-06-29 10:43:41,0.099,-0.155,2.910,1.892,0.916,-1.831,-4.59,-2.08,-3.13
2020-06-29 10:43:41,0.122,-0.190,2.919,-2.747,0.000,-1.587,-4.60,-2.08,-3.14
2020-06-29 10:43:41,0.194,-0.236,2.958,-5.981,-1.038,-1.221,-4.65,-2.09,-3.15
2020-06-29 10:43:41,0.229,-0.253,2.984,-6.042,-1.587,0.000,-4.71,-2.12,-3.15
2020-06-29 10:43:41,0.198,-0.274,2.939,-2.625,-1.587,0.671,-4.74,-2.16,-3.15
2020-06-29 10:43:41,0.088,-0.279,2.894,0.671,-1.282,1.221,-4.74,-2.19,-3.13
2020-06-29 10:43:41,0.052,-0.284,2.934,2.563,-0.366,1.831,-4.72,-2.19,-3.11
2020-06-29 10:43:41,0.007,-0.250,2.979,3.296,0.916,1.160,-4.70,-2.16,-3.10
2020-06-29 10:43:41,0.042,-0.241,2.960,3.723,2.258,0.000,-4.66,-2.12,-3.10
2020-06-29 10:43:41,0.067,-0.167,2.905,3.052,1.709,-0.427,-4.63,-2.09,-3.11
2020-06-29 10:43:41,0.098,-0.180,2.897,1.282,0.916,-1.465,-4.61,-2.08,-3.13
2020-06-29 10:43:41,0.151,-0.236,2.923,-3.479,-0.183,-1.099,-4.63,-2.08,-3.14
2020-06-29 10:43:41,0.198,-0.226,2.964,-6.592,-1.282,-0.977,-4.70,-2.10,-3.15
2020-06-29 10:43:41,0.215,-0.295,2.966,-5.188,-1.526,0.183,-4.74,-2.13,-3.14
2020-06-29 10:43:41,0.206,-0.305,2.927,-2.747,-1.648,0.977,-4.78,-2.17,-3.13
2020-06-29 10:43:41,0.089,-0.296,2.897,0.549,-1.221,1.465,-4.78,-2.20,-3.11
2020-06-29 10:43:41,0.027,-0.292,2.932,2.808,0.244,1.587,-4.77,-2.19,-3.10
2020-06-29 10:43:41,0.018,-0.257,2.972,3.052,1.404,0.977,-4.75,-2.16,-3.09
2020-06-29 10:43:41,0.043,-0.242,2.953,3.235,2.258,0.244,-4.72,-2.11,-3.09
2020-06-29 10:43:41,0.099,-0.208,2.911,2.075,1.953,-0.916,-4.70,-2.09,-3.10
2020-06-29 10:43:41,0.104,-0.236,2.911,-0.671,0.671,-1.587,-4.70,-2.08,-3.12
2020-06-29 10:43:41,0.144,-0.240,2.951,-4.456,-0.183,-0.793,-4.74,-2.08,-3.13
2020-06-29 10:43:41,0.202,-0.220,2.971,-5.188,-1.038,-1.160,-4.79,-2.10,-3.14
2020-06-29 10:43:41,0.221,-0.303,2.951,-3.052,-1.465,-0.183,-4.82,-2.13,-3.14
2020-06-29 10:43:41,0.184,-0.288,2.910,-0.610,-1.770,0.854,-4.83,-2.17,-3.13
2020-06-29 10:43:41,0.095,-0.320,2.900,2.869,-1.160,1.221,-4.81,-2.19,-3.11
2020-06-29 10:43:41,0.011,-0.292,2.943,3.906,0.000,0.671,-4.79,-2.19,-3.11
2020-06-29 10:43:41,0.018,-0.223,2.972,5.066,1.648,0.427,-4.75,-2.15,-3.10
2020-06-29 10:43:41,0.057,-0.195,2.940,5.188,2.258,-0.244,-4.69,-2.11,-3.11
2020-06-29 10:43:41,0.094,-0.205,2.879,2.686,1.892,-1.343,-4.65,-2.09,-3.13
2020-06-29 10:43:41,0.127,-0.226,2.916,-1.404,0.000,-1.404,-4.66,-2.08,-3.14
2020-06-29 10:43:41,0.167,-0.237,2.976,-5.005,-0.427,-0.793,-4.71,-2.09,-3.15
2020-06-29 10:43:41,0.193,-0.235,2.979,-5.615,-1.343,-0.427,-4.76,-2.12,-3.15
2020-06-29 10:43:41,0.209,-0.285,2.927,-2.808,-1.709,0.305,-4.79,-2.15,-3.14
2020-06-29 10:43:41,0.163,-0.268,2.899,0.366,-1.892,0.793,-4.80,-2.19,-3.14
2020-06-29 10:43:41,0.075,-0.306,2.923,2.991,-0.977,1.648,-4.77,-2.21,-3.11
2020-06-29 10:43:41,-0.005,-0.271,2.969,3.723,0.244,1.038,-4.75,-2.20,-3.11
2020-06-29 10:43:41,0.015,-0.213,2.970,4.822,1.892,-0.183,-4.70,-2.15,-3.11
2020-06-29 10:43:41,0.091,-0.159,2.961,4.761,2.014,-0.488,-4.65,-2.11,-3.11
2020-06-29 10:43:41,0.091,-0.157,2.887,2.441,1.526,-1.465,-4.61,-2.10,-3.13
2020-06-29 10:43:41,0.131,-0.220,2.893,-1.343,0.000,-1.648,-4.60,-2.10,-3.15
2020-06-29 10:43:41,0.179,-0.230,2.970,-5.920,-0.793,-1.282,-4.66,-2.11,-3.16
2020-06-29 10:43:41,0.205,-0.250,2.998,-6.653,-1.404,-0.366,-4.72,-2.14,-3.16
2020-06-29 10:43:41,0.200,-0.287,2.935,-4.089,-1.709,0.793,-4.77,-2.17,-3.15
2020-06-29 10:43:41,0.144,-0.285,2.890,-0.610,-1.587,1.038,-4.78,-2.20,-3.14
2020-06-29 10:43:41,0.062,-0.279,2.921,1.831,-0.366,1.770,-4.77,-2.21,-3.13
2020-06-29 10:43:41,-0.011,-0.270,2.964,2.747,0.916,1.526,-4.75,-2.19,-3.11
2020-06-29 10:43:41,0.016,-0.232,2.967,2.869,2.258,0.366,-4.73,-2.14,-3.11
2020-06-29 10:43:41,0.095,-0.157,2.945,2.686,2.075,-0.366,-4.70,-2.10,-3.11
2020-06-29 10:43:41,0.119,-0.160,2.912,1.038,1.343,-1.282,-4.67,-2.09,-3.13
2020-06-29 10:43:41,0.139,-0.261,2.902,-2.686,0.000,-1.099,-4.68,-2.09,-3.14
2020-06-29 10:43:41,0.171,-0.216,2.959,-6.042,-0.977,-0.916,-4.75,-2.11,-3.15
2020-06-29 10:43:41,0.209,-0.265,2.982,-4.639,-1.343,-0.488,-4.78,-2.14,-3.15
2020-06-29 10:43:41,0.204,-0.296,2.935,-2.625,-1.526,0.732,-4.82,-2.17,-3.14
2020-06-29 10:43:41,0.125,-0.306,2.893,0.671,-1.587,1.282,-4.82,-2.20,-3.13
2020-06-29 10:43:41,0.060,-0.306,2.925,3.296,-0.183,0.977,-4.80,-2.21,-3.12
2020-06-29 10:43:41,-0.010,-0.260,2.970,3.784,0.916,0.671,-4.77,-2.19,-3.11
2020-06-29 10:43:41,0.006,-0.201,2.945,4.456,2.441,0.488,-4.73,-2.14,-3.11
2020-06-29 10:43:41,0.069,-0.172,2.893,3.296,2.258,-1.160,-4.69,-2.10,-3.13
2020-06-29 10:43:41,0.115,-0.208,2.900,0.000,0.793,-1.526,-4.67,-2.08,-3.14
2020-06-29 10:43:41,0.151,-0.277,2.943,-3.967,-0.305,-0.610,-4.71,-2.09,-3.15
2020-06-29 10:43:41,0.190,-0.237,2.983,-5.615,-0.977,-0.916,-4.77,-2.10,-3.15
2020-06-29 10:43:41,0.215,-0.286,2.965,-3.479,-1.404,-0.366,-4.80,-2.14,-3.15
2020-06-29 10:43:41,0.204,-0.282,2.923,-0.610,-1.526,1.038,-4.82,-2.17,-3.14
2020-06-29 10:43:41,0.116,-0.329,2.900,2.563,-1.404,1.343,-4.80,-2.20,-3.13
2020-06-29 10:43:41,0.037,-0.308,2.954,4.028,-0.244,0.732,-4.77,-2.20,-3.12
2020-06-29 10:43:41,0.001,-0.228,2.987,5.005,1.160,0.305,-4.74,-2.18,-3.12
2020-06-29 10:43:41,-0.002,-0.182,2.928,5.920,2.563,0.000,-4.67,-2.13,-3.12
2020-06-29 10:43:41,0.099,-0.180,2.884,4.089,2.197,-1.648,-4.63,-2.09,-3.14
2020-06-29 10:43:41,0.125,-0.181,2.921,0.000,0.244,-1.770,-4.61,-2.08,-3.16
2020-06-29 10:43:41,0.154,-0.263,2.964,-4.150,-0.427,-1.160,-4.64,-2.09,-3.17
2020-06-29 10:43:41,0.184,-0.270,2.984,-6.775,-1.404,-0.977,-4.71,-2.11,-3.18
2020-06-29 10:43:41,0.214,-0.265,2.968,-4.883,-1.709,0.183,-4.77,-2.15,-3.18
2020-06-29 10:43:41,0.191,-0.268,2.917,-0.977,-1.770,1.160,-4.78,-2.18,-3.16
2020-06-29 10:43:41,0.096,-0.298,2.898,1.465,-1.099,1.282,-4.77,-2.21,-3.15
2020-06-29 10:43:41,0.009,-0.287,2.953,2.747,0.000,1.892,-4.76,-2.20,-3.13
2020-06-29 10:43:41,0.016,-0.212,2.977,3.296,1.526,0.671,-4.73,-2.17,-3.13
2020-06-29 10:43:41,0.029,-0.196,2.940,3.601,2.075,-0.427,-4.69,-2.13,-3.13
2020-06-29 10:43:41,0.104,-0.158,2.879,2.441,2.075,-0.793,-4.65,-2.09,-3.14
2020-06-29 10:43:41,0.135,-0.213,2.913,-0.427,0.000,-1.587,-4.64,-2.09,-3.15
2020-06-29 10:43:41,0.163,-0.281,2.966,-5.310,-0.610,-1.038,-4.69,-2.11,-3.16
2020-06-29 10:43:41,0.182,-0.236,2.981,-6.653,-1.709,-0.671,-4.76,-2.14,-3.17
2020-06-29 10:43:41,0.215,-0.317,2.942,-3.723,-1.465,0.366,-4.80,-2.16,-3.16
2020-06-29 10:43:41,0.176,-0.275,2.913,-1.709,-1.648,1.343,-4.83,-2.20,-3.15
2020-06-29 10:43:41,0.088,-0.286,2.907,2.014,-0.610,1.404,-4.82,-2.21,-3.14
2020-06-29 10:43:41,-0.009,-0.295,2.947,2.869,0.488,1.160,-4.80,-2.20,-3.13
2020-06-29 10:43:41,-0.000,-0.187,2.958,2.930,1.953,0.793,-4.77,-2.16,-3.12
2020-06-29 10:43:41,0.070,-0.164,2.966,3.296,2.197,-0.366,-4.73,-2.11,-3.13
2020-06-29 10:43:41,0.108,-0.171,2.867,0.793,1.831,-1.526,-4.71,-2.09,-3.14
2020-06-29 10:43:41,0.145,-0.275,2.895,-2.319,-0.488,-0.977,-4.72,-2.10,-3.15
2020-06-29 10:43:41,0.178,-0.230,2.974,-5.493,-0.671,-0.732,-4.78,-2.11,-3.16
2020-06-29 10:43:41,0.189,-0.266,2.985,-4.272,-1.343,-1.099,-4.82,-2.14,-3.16
2020-06-29 10:43:41,0.184,-0.285,2.914,-2.014,-1.465,0.427,-4.84,-2.17,-3.16
2020-06-29 10:43:41,0.149,-0.308,2.908,1.221,-1.709,1.526,-4.83,-2.20,-3.14
2020-06-29 10:43:41,0.074,-0.318,2.931,3.540,-0.488,0.610,-4.81,-2.21,-3.14
2020-06-29 10:43:41,-0.017,-0.280,2.970,4.395,0.427,0.305,-4.78,-2.20,-3.14
2020-06-29 10:43:41,-0.028,-0.147,2.949,5.493,2.258,0.732,-4.74,-2.15,-3.13
2020-06-29 10:43:41,0.050,-0.123,2.885,5.005,2.625,-1.160,-4.66,-2.10,-3.14
2020-06-29 10:43:41,0.116,-0.135,2.875,0.977,0.977,-1.587,-4.63,-2.08,-3.16
2020-06-29 10:43:41,0.166,-0.253,2.928,-3.113,-0.244,-0.977,-4.64,-2.08,-3.17
2020-06-29 10:43:41,0.194,-0.268,2.981,-6.104,-1.221,-0.732,-4.71,-2.11,-3.18
2020-06-29 10:43:41,0.206,-0.269,2.998,-5.066,-1.709,-0.305,-4.76,-2.14,-3.18
2020-06-29 10:43:41,0.190,-0.266,2.926,-1.221,-1.282,1.038,-4.78,-2.17,-3.16
2020-06-29 10:43:41,0.127,-0.312,2.904,1.648,-1.343,1.343,-4.77,-2.20,-3.15
2020-06-29 10:43:41,0.065,-0.309,2.952,3.174,-0.427,1.343,-4.75,-2.20,-3.14
2020-06-29 10:43:41,-0.000,-0.245,2.985,4.150,0.732,0.671,-4.72,-2.19,-3.13
2020-06-29 10:43:42,-0.037,-0.169,2.933,5.127,2.502,0.000,-4.67,-2.14,-3.14
2020-06-29 10:43:42,0.079,-0.106,2.897,4.272,2.625,-1.221,-4.61,-2.09,-3.15
2020-06-29 10:43:42,0.131,-0.133,2.896,1.160,0.854,-1.770,-4.58,-2.08,-3.17
2020-06-29 10:43:42,0.168,-0.284,2.933,-3.540,-0.427,-1.343,-4.59,-2.09,-3.18
2020-06-29 10:43:42,0.197,-0.277,2.987,-7.263,-1.709,-0.977,-4.67,-2.11,-3.19
2020-06-29 10:43:42,0.215,-0.292,3.000,-5.920,-1.709,0.000,-4.74,-2.15,-3.19
2020-06-29 10:43:42,0.191,-0.285,2.928,-2.563,-1.404,1.526,-4.77,-2.18,-3.17
2020-06-29 10:43:42,0.124,-0.306,2.900,0.671,-1.099,1.038,-4.77,-2.20,-3.16
2020-06-29 10:43:42,0.039,-0.301,2.944,2.197,0.000,1.770,-4.76,-2.21,-3.14
2020-06-29 10:43:42,0.000,-0.234,2.981,2.563,1.282,1.343,-4.75,-2.18,-3.13
2020-06-29 10:43:42,-0.020,-0.191,2.928,2.991,2.319,0.000,-4.72,-2.13,-3.13
2020-06-29 10:43:42,0.098,-0.135,2.897,2.075,2.319,-0.793,-4.69,-2.09,-3.14
2020-06-29 10:43:42,0.144,-0.199,2.902,-0.305,0.549,-1.282,-4.67,-2.08,-3.15
2020-06-29 10:43:42,0.181,-0.314,2.942,-4.639,-0.793,-0.793,-4.71,-2.09,-3.16
2020-06-29 10:43:42,0.188,-0.251,2.976,-6.165,-1.770,-0.732,-4.78,-2.13,-3.17
2020-06-29 10:43:42,0.204,-0.314,2.976,-3.357,-1.343,0.000,-4.82,-2.15,-3.16
2020-06-29 10:43:42,0.174,-0.278,2.920,-1.282,-1.404,1.343,-4.84,-2.19,-3.15
2020-06-29 10:43:42,0.120,-0.333,2.905,2.380,-0.977,1.160,-4.82,-2.21,-3.14
2020-06-29 10:43:42,0.016,-0.305,2.942,3.296,0.183,0.854,-4.81,-2.20,-3.13
2020-06-29 10:43:42,-0.012,-0.198,2.971,4.089,1.648,0.549,-4.78,-2.17,-3.13
2020-06-29 10:43:42,0.012,-0.156,2.929,4.395,2.441,0.000,-4.72,-2.12,-3.13
2020-06-29 10:43:42,0.094,-0.157,2.848,1.770,2.197,-1.648,-4.69,-2.08,-3.15
2020-06-29 10:43:42,0.169,-0.240,2.910,-1.953,0.000,-1.160,-4.70,-2.08,-3.16
2020-06-29 10:43:42,0.198,-0.269,2.985,-5.554,-0.793,-0.793,-4.75,-2.10,-3.16
2020-06-29 10:43:42,0.166,-0.265,2.979,-4.822,-1.343,-0.916,-4.80,-2.13,-3.18
2020-06-29 10:43:42,0.191,-0.285,2.927,-1.953,-1.343,0.488,-4.82,-2.15,-3.17
2020-06-29 10:43:42,0.152,-0.262,2.909,1.221,-1.587,1.221,-4.82,-2.19,-3.15
2020-06-29 10:43:42,0.106,-0.334,2.935,3.784,-0.549,1.038,-4.78,-2.20,-3.14
2020-06-29 10:43:42,0.004,-0.296,2.974,4.150,0.000,0.671,-4.76,-2.20,-3.14
2020-06-29 10:43:42,-0.017,-0.164,2.971,5.615,2.014,0.488,-4.71,-2.15,-3.13
2020-06-29 10:43:42,0.043,-0.089,2.920,5.554,2.563,-0.916,-4.64,-2.10,-3.15
2020-06-29 10:43:42,0.101,-0.094,2.853,2.319,1.709,-1.648,-4.59,-2.08,-3.16
2020-06-29 10:43:42,0.176,-0.211,2.895,-1.892,0.000,-1.099,-4.58,-2.08,-3.18
2020-06-29 10:43:42,0.214,-0.287,2.979,-6.165,-1.282,-0.977,-4.64,-2.10,-3.18
2020-06-29 10:43:42,0.188,-0.270,3.007,-6.592,-1.770,-0.488,-4.71,-2.14,-3.19
2020-06-29 10:43:42,0.172,-0.257,2.940,-2.563,-1.282,1.099,-4.74,-2.17,-3.18
2020-06-29 10:43:42,0.137,-0.292,2.902,0.732,-1.343,1.587,-4.74,-2.19,-3.16
2020-06-29 10:43:42,0.095,-0.311,2.942,2.258,-0.488,1.465,-4.72,-2.20,-3.14
2020-06-29 10:43:42,-0.002,-0.286,2.977,3.113,0.366,1.404,-4.71,-2.19,-3.13
2020-06-29 10:43:42,-0.034,-0.184,2.964,3.601,2.136,0.305,-4.68,-2.15,-3.13
2020-06-29 10:43:42,0.029,-0.097,2.903,3.540,2.441,-0.549,-4.64,-2.10,-3.14
2020-06-29 10:43:42,0.114,-0.104,2.865,1.465,1.404,-1.465,-4.59,-2.07,-3.15
2020-06-29 10:43:42,0.197,-0.269,2.909,-2.869,-0.366,-1.221,-4.60,-2.08,-3.16
2020-06-29 10:43:42,0.207,-0.276,2.981,-7.019,-1.587,-0.977,-4.67,-2.11,-3.17
2020-06-29 10:43:42,0.191,-0.293,3.001,-5.798,-1.648,-0.366,-4.74,-2.15,-3.18
2020-06-29 10:43:42,0.178,-0.291,2.938,-2.869,-1.221,1.099,-4.77,-2.17,-3.16
2020-06-29 10:43:42,0.126,-0.296,2.907,0.427,-1.099,1.343,-4.78,-2.19,-3.15
2020-06-29 10:43:42,0.080,-0.330,2.942,2.441,0.000,1.404,-4.76,-2.20,-3.13
2020-06-29 10:43:42,-0.001,-0.270,2.970,2.502,0.732,0.977,-4.76,-2.18,-3.13
2020-06-29 10:43:42,-0.036,-0.195,2.946,3.113,2.197,0.488,-4.73,-2.14,-3.12
2020-06-29 10:43:42,0.060,-0.103,2.908,2.075,2.502,-0.793,-4.70,-2.08,-3.13
2020-06-29 10:43:42,0.139,-0.196,2.883,0.000,1.160,-1.587,-4.67,-2.07,-3.15
2020-06-29 10:43:42,0.191,-0.292,2.935,-4.333,-0.854,-0.610,-4.71,-2.08,-3.15
2020-06-29 10:43:42,0.201,-0.277,2.991,-5.371,-1.465,-0.977,-4.77,-2.11,-3.16
2020-06-29 10:43:42,0.190,-0.308,2.984,-3.235,-1.526,-0.488,-4.81,-2.14,-3.16
2020-06-29 10:43:42,0.165,-0.271,2.920,-0.549,-1.343,0.977,-4.82,-2.17,-3.15
2020-06-29 10:43:42,0.129,-0.343,2.906,3.113,-1.038,1.160,-4.80,-2.19,-3.14
2020-06-29 10:43:42,0.064,-0.333,2.955,3.723,-0.305,0.671,-4.78,-2.20,-3.14
2020-06-29 10:43:42,-0.007,-0.218,2.979,4.761,0.916,0.488,-4.75,-2.18,-3.13
2020-06-29 10:43:42,-0.038,-0.162,2.908,5.554,2.563,0.000,-4.69,-2.13,-3.13
2020-06-29 10:43:42,0.076,-0.108,2.857,2.808,2.319,-1.465,-4.65,-2.08,-3.15
2020-06-29 10:43:42,0.178,-0.195,2.908,-1.038,0.488,-1.343,-4.63,-2.07,-3.16
2020-06-29 10:43:42,0.198,-0.281,2.973,-5.127,-0.977,-0.977,-4.67,-2.09,-3.17
2020-06-29 10:43:42,0.179,-0.293,2.984,-5.676,-1.404,-0.854,-4.74,-2.13,-3.18
2020-06-29 10:43:42,0.191,-0.262,2.961,-2.930,-1.587,0.305,-4.77,-2.15,-3.18
2020-06-29 10:43:42,0.146,-0.251,2.908,0.854,-1.282,0.977,-4.77,-2.18,-3.16
2020-06-29 10:43:42,0.114,-0.324,2.919,3.113,-0.732,1.160,-4.74,-2.20,-3.15
2020-06-29 10:43:42,0.035,-0.310,2.978,3.601,-0.183,1.038,-4.72,-2.20,-3.14
2020-06-29 10:43:42,-0.011,-0.205,2.985,4.639,1.587,0.366,-4.69,-2.16,-3.14
2020-06-29 10:43:42,-0.011,-0.125,2.918,5.005,2.319,-0.610,-4.63,-2.12,-3.15
2020-06-29 10:43:42,0.068,-0.087,2.829,2.869,2.258,-1.526,-4.58,-2.08,-3.16
2020-06-29 10:43:42,0.174,-0.173,2.888,-0.916,0.000,-1.404,-4.56,-2.07,-3.18
2020-06-29 10:43:42,0.214,-0.268,2.979,-5.920,-1.099,-1.099,-4.60,-2.09,-3.19
2020-06-29 10:43:42,0.179,-0.292,2.992,-7.141,-1.831,-0.671,-4.68,-2.13,-3.19
2020-06-29 10:43:42,0.172,-0.264,2.950,-4.089,-1.587,0.854,-4.73,-2.16,-3.19
2020-06-29 10:43:42,0.144,-0.261,2.905,-0.305,-1.038,1.404,-4.74,-2.18,-3.17
2020-06-29 10:43:42,0.109,-0.312,2.925,1.770,-0.549,1.648,-4.72,-2.19,-3.15
2020-06-29 10:43:42,0.014,-0.293,2.965,2.319,0.244,1.648,-4.72,-2.19,-3.14
2020-06-29 10:43:42,-0.013,-0.219,2.979,2.686,1.892,0.610,-4.70,-2.15,-3.13
2020-06-29 10:43:42,0.009,-0.081,2.924,2.625,2.136,-0.244,-4.67,-2.10,-3.14
2020-06-29 10:43:42,0.097,-0.085,2.852,1.526,1.953,-1.282,-4.62,-2.07,-3.15
2020-06-29 10:43:42,0.179,-0.217,2.884,-2.441,0.000,-1.221,-4.61,-2.07,-3.16
2020-06-29 10:43:42,0.216,-0.267,2.968,-6.104,-1.343,-0.916,-4.67,-2.09,-3.17
2020-06-29 10:43:42,0.174,-0.297,2.994,-5.310,-1.709,-0.793,-4.73,-2.13,-3.18
2020-06-29 10:43:42,0.165,-0.284,2.943,-2.625,-1.282,0.549,-4.77,-2.16,-3.17
2020-06-29 10:43:42,0.118,-0.292,2.909,0.854,-1.221,1.221,-4.77,-2.18,-3.16
2020-06-29 10:43:42,0.100,-0.330,2.933,3.174,0.000,1.038,-4.75,-2.18,-3.15
2020-06-29 10:43:42,0.019,-0.298,2.961,3.418,0.366,0.732,-4.73,-2.17,-3.14
2020-06-29 10:43:42,-0.038,-0.184,2.963,4.150,2.075,0.610,-4.70,-2.13,-3.14
2020-06-29 10:43:42,0.002,-0.073,2.890,3.296,2.625,-0.916,-4.65,-2.08,-3.15
2020-06-29 10:43:42,0.119,-0.147,2.852,0.488,1.587,-1.404,-4.61,-2.04,-3.16
2020-06-29 10:43:42,0.186,-0.254,2.920,-3.906,-0.488,-0.793,-4.64,-2.05,-3.17
2020-06-29 10:43:42,0.220,-0.290,2.996,-5.554,-1.160,-0.977,-4.70,-2.08,-3.18
2020-06-29 10:43:42,0.184,-0.310,2.981,-3.845,-1.831,-0.488,-4.74,-2.12,-3.18
2020-06-29 10:43:42,0.155,-0.263,2.928,-0.488,-1.160,0.916,-4.76,-2.14,-3.17
2020-06-29 10:43:42,0.122,-0.322,2.905,2.991,-1.038,1.282,-4.74,-2.16,-3.16
2020-06-29 10:43:42,0.102,-0.333,2.965,3.967,-0.366,0.671,-4.71,-2.17,-3.15
2020-06-29 10:43:42,0.011,-0.272,2.981,4.700,0.427,0.549,-4.68,-2.16,-3.15
2020-06-29 10:43:42,-0.057,-0.155,2.936,5.737,2.319,0.000,-4.63,-2.12,-3.15
2020-06-29 10:43:42,0.042,-0.075,2.887,4.089,2.563,-1.526,-4.57,-2.06,-3.16
2020-06-29 10:43:42,0.128,-0.108,2.877,0.366,1.221,-1.587,-4.54,-2.04,-3.18
2020-06-29 10:43:42,0.188,-0.260,2.935,-4.089,-0.671,-0.916,-4.55,-2.05,-3.19
2020-06-29 10:43:43,0.212,-0.319,3.004,-6.836,-1.465,-0.916,-4.63,-2.08,-3.20
2020-06-29 10:43:43,0.188,-0.274,2.996,-5.188,-2.075,0.000,-4.69,-2.12,-3.20
2020-06-29 10:43:43,0.144,-0.254,2.921,-0.610,-1.282,1.282,-4.70,-2.15,-3.18
2020-06-29 10:43:43,0.105,-0.311,2.894,1.831,-0.732,1.526,-4.69,-2.16,-3.16
2020-06-29 10:43:43,0.075,-0.301,2.972,2.747,0.000,1.526,-4.67,-2.16,-3.15
2020-06-29 10:43:43,0.023,-0.267,2.988,3.174,0.977,0.793,-4.66,-2.14,-3.14
2020-06-29 10:43:43,-0.053,-0.178,2.923,3.357,2.014,-0.244,-4.63,-2.10,-3.15
2020-06-29 10:43:43,0.068,-0.079,2.876,2.625,2.380,-0.732,-4.59,-2.05,-3.16
2020-06-29 10:43:43,0.147,-0.143,2.898,-0.427,0.732,-1.648,-4.56,-2.04,-3.18
2020-06-29 10:43:43,0.147,-0.143,2.898,-5.188,-0.916,-0.977,-4.60,-2.05,-3.19
2020-06-29 10:43:43,0.195,-0.278,2.944,-5.188,-0.916,-0.977,-4.63,-2.08,-3.19
2020-06-29 10:43:43,0.194,-0.290,2.985,-6.653,-1.953,-0.610,-4.70,-2.11,-3.20
2020-06-29 10:43:43,0.182,-0.315,2.978,-4.395,-1.648,0.305,-4.76,-2.14,-3.19
2020-06-29 10:43:43,0.127,-0.263,2.926,-1.343,-1.221,1.343,-4.78,-2.17,-3.18
2020-06-29 10:43:43,0.105,-0.307,2.904,2.075,-0.305,1.465,-4.76,-2.17,-3.16
2020-06-29 10:43:43,0.054,-0.334,2.960,2.747,0.000,1.160,-4.75,-2.17,-3.15
2020-06-29 10:43:43,0.002,-0.227,2.976,2.502,1.465,0.977,-4.74,-2.14,-3.14
2020-06-29 10:43:43,0.003,-0.134,2.941,2.930,2.075,-0.366,-4.71,-2.10,-3.15
2020-06-29 10:43:43,0.067,-0.104,2.845,0.977,2.197,-1.221,-4.68,-2.06,-3.16
2020-06-29 10:43:43,0.157,-0.183,2.878,-2.258,0.305,-0.977,-4.67,-2.05,-3.18
2020-06-29 10:43:43,0.229,-0.259,2.962,-5.188,-0.916,-0.916,-4.71,-2.07,-3.18
2020-06-29 10:43:43,0.186,-0.299,2.983,-4.761,-1.831,-1.160,-4.76,-2.11,-3.19
2020-06-29 10:43:43,0.151,-0.296,2.931,-2.014,-1.526,0.488,-4.80,-2.14,-3.19
2020-06-29 10:43:43,0.117,-0.284,2.922,1.282,-1.221,1.343,-4.79,-2.16,-3.17
2020-06-29 10:43:43,0.111,-0.344,2.932,3.784,-0.183,0.610,-4.76,-2.16,-3.16
2020-06-29 10:43:43,0.049,-0.326,2.979,4.089,0.000,0.610,-4.74,-2.16,-3.16
2020-06-29 10:43:43,-0.024,-0.195,2.969,5.127,1.892,0.793,-4.71,-2.13,-3.15
2020-06-29 10:43:43,-0.019,-0.082,2.889,4.578,2.380,-0.916,-4.65,-2.08,-3.16
2020-06-29 10:43:43,0.071,-0.081,2.836,1.221,1.770,-1.404,-4.61,-2.04,-3.18
2020-06-29 10:43:43,0.169,-0.181,2.901,-3.052,0.183,-0.793,-4.61,-2.04,-3.19
2020-06-29 10:43:43,0.238,-0.284,2.986,-5.615,-1.221,-0.854,-4.65,-2.06,-3.19
2020-06-29 10:43:43,0.192,-0.298,3.001,-5.127,-2.075,-0.305,-4.71,-2.11,-3.20
2020-06-29 10:43:43,0.133,-0.263,2.931,-0.977,-1.160,0.793,-4.73,-2.13,-3.19
2020-06-29 10:43:43,0.106,-0.298,2.912,2.197,-0.916,1.465,-4.71,-2.15,-3.17
2020-06-29 10:43:43,0.105,-0.322,2.959,3.418,-0.305,1.343,-4.69,-2.15,-3.16
2020-06-29 10:43:43,0.048,-0.313,2.987,4.089,0.244,0.488,-4.67,-2.14,-3.15
2020-06-29 10:43:43,-0.038,-0.194,2.948,4.700,1.953,0.000,-4.63,-2.11,-3.15
2020-06-29 10:43:43,0.007,-0.056,2.901,4.089,2.319,-0.854,-4.58,-2.06,-3.16
2020-06-29 10:43:43,0.093,-0.071,2.855,1.282,1.709,-1.770,-4.54,-2.03,-3.19
2020-06-29 10:43:43,0.185,-0.222,2.902,-3.601,-0.427,-1.404,-4.54,-2.03,-3.20
2020-06-29 10:43:43,0.229,-0.282,2.996,-6.897,-1.648,-0.793,-4.60,-2.06,-3.20
2020-06-29 10:43:43,0.198,-0.324,3.001,-5.981,-2.014,0.000,-4.67,-2.10,-3.20
2020-06-29 10:43:43,0.126,-0.267,2.934,-2.502,-1.343,1.038,-4.71,-2.13,-3.19
2020-06-29 10:43:43,0.094,-0.306,2.900,1.282,-0.427,1.526,-4.71,-2.14,-3.18
2020-06-29 10:43:43,0.086,-0.307,2.962,2.258,0.000,1.648,-4.70,-2.14,-3.16
2020-06-29 10:43:43,0.049,-0.311,2.981,2.502,0.671,1.099,-4.69,-2.13,-3.15
2020-06-29 10:43:43,-0.042,-0.214,2.935,2.380,1.831,0.000,-4.67,-2.09,-3.15
2020-06-29 10:43:43,0.048,-0.085,2.924,1.892,2.258,-0.732,-4.65,-2.04,-3.16
2020-06-29 10:43:43,0.114,-0.108,2.876,-0.549,1.282,-1.343,-4.63,-2.02,-3.18
2020-06-29 10:43:43,0.192,-0.261,2.904,-4.333,-0.610,-1.099,-4.64,-2.03,-3.19
2020-06-29 10:43:43,0.227,-0.280,2.977,-5.859,-1.831,-0.732,-4.71,-2.07,-3.19
2020-06-29 10:43:43,0.177,-0.330,2.979,-3.723,-1.831,-0.183,-4.75,-2.10,-3.19
2020-06-29 10:43:43,0.112,-0.283,2.920,-0.916,-1.343,1.160,-4.77,-2.13,-3.18
2020-06-29 10:43:43,0.098,-0.339,2.902,2.625,-0.671,1.160,-4.76,-2.14,-3.16
2020-06-29 10:43:43,0.071,-0.338,2.967,3.418,0.000,0.732,-4.74,-2.14,-3.16
2020-06-29 10:43:43,0.030,-0.275,2.979,3.723,1.038,0.671,-4.72,-2.11,-3.15
2020-06-29 10:43:43,-0.008,-0.174,2.922,3.723,1.953,-0.183,-4.69,-2.08,-3.15
2020-06-29 10:43:43,0.044,-0.121,2.863,1.587,2.136,-1.526,-4.66,-2.04,-3.18
2020-06-29 10:43:43,0.137,-0.138,2.880,-1.892,0.732,-1.038,-4.66,-2.02,-3.19
2020-06-29 10:43:43,0.222,-0.245,2.947,-4.639,-0.732,-0.854,-4.69,-2.04,-3.19
2020-06-29 10:43:43,0.194,-0.292,2.980,-4.639,-1.770,-0.793,-4.73,-2.08,-3.20
2020-06-29 10:43:43,0.148,-0.300,2.936,-1.892,-1.709,0.000,-4.76,-2.11,-3.20
2020-06-29 10:43:43,0.098,-0.272,2.923,1.648,-1.282,1.404,-4.75,-2.13,-3.18
2020-06-29 10:43:43,0.102,-0.329,2.930,3.967,-0.183,0.916,-4.72,-2.13,-3.17
2020-06-29 10:43:43,0.069,-0.332,2.993,4.517,0.000,0.366,-4.69,-2.13,-3.17
2020-06-29 10:43:43,0.013,-0.230,2.980,5.310,1.587,0.488,-4.66,-2.10,-3.16
2020-06-29 10:43:43,-0.021,-0.103,2.897,5.066,2.136,-0.793,-4.60,-2.07,-3.18
2020-06-29 10:43:43,0.054,-0.069,2.851,2.075,1.831,-1.770,-4.55,-2.02,-3.19
2020-06-29 10:43:43,0.160,-0.118,2.893,-2.258,0.610,-1.282,-4.55,-2.01,-3.21
2020-06-29 10:43:43,0.248,-0.271,2.965,-5.615,-1.221,-0.977,-4.58,-2.03,-3.21
2020-06-29 10:43:43,0.206,-0.304,2.997,-6.409,-2.136,-0.427,-4.65,-2.08,-3.22
2020-06-29 10:43:43,0.132,-0.275,2.942,-2.686,-1.526,0.793,-4.69,-2.11,-3.21
2020-06-29 10:43:43,0.077,-0.279,2.918,0.977,-0.854,1.465,-4.69,-2.13,-3.19
2020-06-29 10:43:43,0.092,-0.303,2.940,2.319,0.000,1.465,-4.67,-2.12,-3.18
2020-06-29 10:43:43,0.064,-0.326,2.990,2.869,0.366,1.221,-4.65,-2.11,-3.17
2020-06-29 10:43:43,0.005,-0.246,2.976,2.930,1.831,0.000,-4.64,-2.08,-3.17
2020-06-29 10:43:43,-0.014,-0.092,2.915,2.747,1.953,-0.427,-4.61,-2.04,-3.18
2020-06-29 10:43:43,0.073,-0.068,2.846,1.160,1.709,-1.343,-4.58,-2.01,-3.19
2020-06-29 10:43:43,0.176,-0.178,2.878,-3.174,0.000,-1.526,-4.57,-2.00,-3.20
2020-06-29 10:43:43,0.246,-0.264,2.979,-6.409,-1.526,-0.610,-4.63,-2.03,-3.21
2020-06-29 10:43:43,0.195,-0.321,2.990,-5.615,-2.136,-0.183,-4.69,-2.08,-3.21
2020-06-29 10:43:43,0.119,-0.318,2.928,-2.686,-1.404,0.854,-4.73,-2.11,-3.20
2020-06-29 10:43:43,0.078,-0.283,2.922,0.732,-0.732,1.587,-4.74,-2.11,-3.19
2020-06-29 10:43:43,0.083,-0.318,2.949,2.869,0.305,1.465,-4.71,-2.10,-3.17
2020-06-29 10:43:43,0.063,-0.333,2.978,2.502,0.549,1.038,-4.71,-2.09,-3.16
2020-06-29 10:43:43,0.000,-0.241,2.949,2.563,1.770,0.305,-4.70,-2.07,-3.16
2020-06-29 10:43:43,0.040,-0.116,2.950,1.587,1.953,-0.854,-4.68,-2.03,-3.17
2020-06-29 10:43:43,0.085,-0.124,2.872,-0.916,1.404,-1.099,-4.66,-2.01,-3.18
2020-06-29 10:43:43,0.189,-0.225,2.898,-3.906,-0.366,-0.854,-4.68,-2.01,-3.19
2020-06-29 10:43:43,0.243,-0.259,2.979,-4.883,-1.709,-0.854,-4.72,-2.04,-3.20
2020-06-29 10:43:43,0.183,-0.336,2.975,-2.808,-1.953,-0.427,-4.76,-2.09,-3.20
2020-06-29 10:43:43,0.100,-0.287,2.911,0.000,-1.526,0.977,-4.77,-2.11,-3.19
2020-06-29 10:43:43,0.090,-0.324,2.919,3.540,-0.732,1.099,-4.75,-2.12,-3.18
2020-06-29 10:43:43,0.078,-0.322,2.966,4.150,0.366,0.244,-4.72,-2.11,-3.18
2020-06-29 10:43:43,0.059,-0.279,2.984,5.005,1.038,0.244,-4.69,-2.09,-3.17
2020-06-29 10:43:43,0.027,-0.176,2.934,4.822,2.075,0.000,-4.65,-2.07,-3.18
2020-06-29 10:43:43,0.031,-0.126,2.886,2.075,1.892,-1.831,-4.61,-2.03,-3.19
2020-06-29 10:43:43,0.112,-0.110,2.872,-1.770,0.854,-1.160,-4.61,-2.01,-3.21
2020-06-29 10:43:44,0.214,-0.217,2.941,-4.578,-0.671,-0.854,-4.63,-2.02,-3.21
2020-06-29 10:43:44,0.221,-0.276,2.979,-5.249,-1.648,-0.732,-4.68,-2.06,-3.22
2020-06-29 10:43:44,0.152,-0.282,2.947,-2.502,-2.075,0.305,-4.71,-2.10,-3.21
2020-06-29 10:43:44,0.069,-0.261,2.912,1.404,-1.099,1.404,-4.70,-2.11,-3.20
2020-06-29 10:43:44,0.087,-0.298,2.938,3.296,-0.305,1.404,-4.67,-2.11,-3.19
2020-06-29 10:43:44,0.063,-0.304,2.991,3.784,0.244,0.793,-4.65,-2.10,-3.18
2020-06-29 10:43:44,0.053,-0.264,2.986,4.395,1.465,0.183,-4.61,-2.08,-3.18
2020-06-29 10:43:44,0.001,-0.129,2.905,4.089,1.709,-0.549,-4.58,-2.05,-3.19
2020-06-29 10:43:44,0.045,-0.072,2.874,2.075,1.526,-1.526,-4.54,-2.02,-3.20
2020-06-29 10:43:44,0.142,-0.105,2.880,-2.136,0.854,-1.526,-4.53,-2.00,-3.22
2020-06-29 10:43:44,0.239,-0.238,2.951,-5.859,-1.282,-0.732,-4.56,-2.02,-3.22
2020-06-29 10:43:44,0.211,-0.291,2.981,-6.592,-2.197,-0.305,-4.63,-2.07,-3.22
2020-06-29 10:43:44,0.145,-0.296,2.943,-3.601,-1.770,0.916,-4.67,-2.10,-3.21
2020-06-29 10:43:44,0.050,-0.267,2.912,0.000,-0.916,1.648,-4.69,-2.12,-3.20
2020-06-29 10:43:44,0.080,-0.294,2.934,2.136,0.244,1.770,-4.67,-2.10,-3.18
2020-06-29 10:43:44,0.064,-0.320,2.979,2.258,0.610,1.160,-4.66,-2.09,-3.17
2020-06-29 10:43:44,0.055,-0.277,2.985,2.197,1.831,0.427,-4.65,-2.07,-3.16
2020-06-29 10:43:44,-0.002,-0.137,2.927,1.587,1.648,-0.427,-4.64,-2.04,-3.17
2020-06-29 10:43:44,0.065,-0.130,2.863,0.366,1.526,-1.160,-4.62,-2.01,-3.19
2020-06-29 10:43:44,0.161,-0.165,2.887,-3.601,0.244,-1.343,-4.63,-1.99,-3.20
2020-06-29 10:43:44,0.246,-0.243,2.966,-5.310,-1.221,-0.671,-4.67,-2.02,-3.20
2020-06-29 10:43:44,0.201,-0.318,2.960,-4.211,-2.014,-0.549,-4.71,-2.07,-3.21
2020-06-29 10:43:44,0.134,-0.323,2.922,-1.648,-1.587,0.610,-4.75,-2.10,-3.20
2020-06-29 10:43:44,0.061,-0.287,2.924,1.648,-0.916,1.282,-4.75,-2.11,-3.19
2020-06-29 10:43:44,0.077,-0.314,2.953,3.723,0.549,0.793,-4.71,-2.10,-3.18
2020-06-29 10:43:44,0.060,-0.308,2.973,3.662,0.793,0.488,-4.69,-2.08,-3.18
2020-06-29 10:43:44,0.042,-0.244,2.954,3.723,2.014,0.000,-4.67,-2.05,-3.18
2020-06-29 10:43:44,0.040,-0.172,2.933,1.831,1.770,-1.038,-4.65,-2.03,-3.19
2020-06-29 10:43:44,0.085,-0.154,2.899,-1.404,1.160,-1.282,-4.65,-2.01,-3.20
2020-06-29 10:43:44,0.169,-0.194,2.922,-4.089,0.000,-0.671,-4.67,-2.00,-3.21
2020-06-29 10:43:44,0.245,-0.240,2.967,-4.333,-1.282,-0.854,-4.71,-2.03,-3.21
2020-06-29 10:43:44,0.195,-0.325,2.947,-2.258,-2.136,0.000,-4.73,-2.08,-3.21
2020-06-29 10:43:44,0.099,-0.263,2.907,0.610,-1.709,1.282,-4.74,-2.11,-3.20
2020-06-29 10:43:44,0.071,-0.323,2.922,3.967,-0.732,1.038,-4.71,-2.11,-3.19
2020-06-29 10:43:44,0.062,-0.298,2.975,4.150,0.427,0.366,-4.68,-2.10,-3.19
2020-06-29 10:43:44,0.058,-0.259,2.979,5.432,1.282,0.305,-4.64,-2.08,-3.18
2020-06-29 10:43:44,0.080,-0.181,2.950,5.188,2.014,-0.549,-4.59,-2.05,-3.19
2020-06-29 10:43:44,0.030,-0.127,2.906,2.014,1.221,-1.892,-4.56,-2.03,-3.21
2020-06-29 10:43:44,0.105,-0.113,2.886,-1.587,0.916,-1.221,-4.55,-2.01,-3.22
2020-06-29 10:43:44,0.206,-0.200,2.933,-5.066,-0.854,-1.099,-4.58,-2.02,-3.24
2020-06-29 10:43:44,0.237,-0.259,2.978,-6.104,-1.709,-0.732,-4.63,-2.06,-3.24
2020-06-29 10:43:44,0.161,-0.287,2.938,-3.479,-2.136,0.732,-4.67,-2.10,-3.23
2020-06-29 10:43:44,0.071,-0.256,2.906,0.488,-1.099,1.160,-4.67,-2.13,-3.22
2020-06-29 10:43:44,0.063,-0.298,2.935,2.258,-0.244,1.709,-4.66,-2.11,-3.20
2020-06-29 10:43:44,0.048,-0.274,2.989,2.686,0.793,1.282,-4.64,-2.10,-3.19
2020-06-29 10:43:44,0.069,-0.295,2.984,3.296,1.770,0.000,-4.61,-2.07,-3.19
2020-06-29 10:43:44,0.036,-0.159,2.911,2.441,1.587,-0.183,-4.60,-2.05,-3.19
2020-06-29 10:43:44,0.051,-0.133,2.885,1.465,1.160,-1.282,-4.57,-2.02,-3.21
2020-06-29 10:43:44,0.125,-0.118,2.888,-2.625,0.793,-1.587,-4.58,-2.01,-3.22
2020-06-29 10:43:44,0.213,-0.220,2.937,-5.615,-1.160,-0.671,-4.61,-2.02,-3.23
2020-06-29 10:43:44,0.229,-0.270,2.970,-5.615,-1.892,0.000,-4.66,-2.07,-3.22
2020-06-29 10:43:44,0.165,-0.345,2.939,-3.113,-1.892,0.488,-4.70,-2.10,-3.22
2020-06-29 10:43:44,0.050,-0.263,2.914,0.000,-1.099,1.465,-4.72,-2.13,-3.20
2020-06-29 10:43:44,0.055,-0.313,2.934,2.869,0.305,1.953,-4.70,-2.11,-3.19
2020-06-29 10:43:44,0.054,-0.293,2.968,2.441,0.977,0.916,-4.69,-2.09,-3.18
2020-06-29 10:43:44,0.069,-0.292,2.978,2.747,1.892,0.244,-4.67,-2.06,-3.18
2020-06-29 10:43:44,0.047,-0.183,2.945,1.343,1.648,-0.183,-4.66,-2.03,-3.18
2020-06-29 10:43:44,0.063,-0.194,2.898,-0.488,1.160,-1.099,-4.66,-2.02,-3.19
2020-06-29 10:43:44,0.152,-0.192,2.913,-3.906,0.000,-0.977,-4.69,-2.01,-3.20
2020-06-29 10:43:44,0.228,-0.221,2.965,-4.578,-1.038,-0.793,-4.72,-2.03,-3.21
2020-06-29 10:43:44,0.212,-0.328,2.950,-2.747,-1.709,-0.305,-4.75,-2.07,-3.21
2020-06-29 10:43:44,0.152,-0.314,2.912,-0.732,-1.892,0.671,-4.77,-2.10,-3.20
2020-06-29 10:43:44,0.065,-0.312,2.923,3.113,-0.916,1.038,-4.75,-2.12,-3.19
2020-06-29 10:43:44,0.049,-0.306,2.959,4.150,0.549,0.488,-4.72,-2.11,-3.19
2020-06-29 10:43:44,0.054,-0.270,2.975,4.883,1.343,0.000,-4.69,-2.08,-3.19
2020-06-29 10:43:44,0.083,-0.232,2.964,5.005,2.258,-0.244,-4.65,-2.05,-3.19
2020-06-29 10:43:44,0.054,-0.208,2.909,2.136,1.709,-1.709,-4.62,-2.03,-3.21
2020-06-29 10:43:44,0.099,-0.191,2.900,-1.648,0.549,-1.099,-4.63,-2.02,-3.22
2020-06-29 10:43:44,0.170,-0.184,2.953,-4.395,-0.183,-0.977,-4.66,-2.02,-3.23
2020-06-29 10:43:44,0.238,-0.250,2.968,-4.700,-1.038,-0.977,-4.70,-2.04,-3.24
2020-06-29 10:43:44,0.193,-0.284,2.931,-2.563,-2.136,0.305,-4.73,-2.09,-3.24
2020-06-29 10:43:44,0.111,-0.276,2.902,0.977,-1.465,1.160,-4.72,-2.12,-3.22
2020-06-29 10:43:44,0.059,-0.296,2.927,3.174,-0.732,1.282,-4.70,-2.13,-3.21
2020-06-29 10:43:44,0.026,-0.281,2.982,3.845,0.610,0.854,-4.67,-2.11,-3.20
2020-06-29 10:43:44,0.051,-0.253,2.980,4.700,1.709,0.305,-4.64,-2.08,-3.20
2020-06-29 10:43:44,0.108,-0.180,2.941,4.333,1.770,-0.488,-4.60,-2.05,-3.21
2020-06-29 10:43:44,0.059,-0.149,2.912,1.831,0.916,-1.526,-4.56,-2.04,-3.22
2020-06-29 10:43:44,0.119,-0.155,2.905,-1.953,0.549,-1.282,-4.57,-2.03,-3.24
2020-06-29 10:43:44,0.197,-0.201,2.944,-5.554,-1.038,-0.793,-4.61,-2.04,-3.24
2020-06-29 10:43:44,0.230,-0.251,2.977,-6.226,-1.587,-0.366,-4.66,-2.08,-3.25
2020-06-29 10:43:44,0.176,-0.304,2.937,-3.784,-2.136,0.854,-4.70,-2.12,-3.24
2020-06-29 10:43:44,0.084,-0.249,2.901,-0.427,-1.404,1.465,-4.72,-2.14,-3.22
2020-06-29 10:43:44,0.044,-0.302,2.917,2.136,-0.183,1.770,-4.70,-2.14,-3.20
2020-06-29 10:43:44,0.020,-0.246,2.970,2.075,1.160,1.343,-4.69,-2.11,-3.19
2020-06-29 10:43:44,0.064,-0.277,2.974,2.686,2.136,0.305,-4.66,-2.08,-3.19
2020-06-29 10:43:44,0.050,-0.188,2.905,1.343,1.648,-0.366,-4.66,-2.05,-3.19
2020-06-29 10:43:44,0.080,-0.211,2.895,0.183,0.977,-1.221,-4.65,-2.03,-3.20
2020-06-29 10:43:44,0.146,-0.197,2.923,-3.662,0.244,-1.099,-4.68,-2.03,-3.21
2020-06-29 10:43:44,0.198,-0.214,2.951,-5.249,-0.977,-1.038,-4.72,-2.04,-3.22
2020-06-29 10:43:44,0.218,-0.289,2.955,-3.906,-1.526,-0.244,-4.75,-2.08,-3.22
2020-06-29 10:43:44,0.191,-0.333,2.927,-1.892,-1.831,0.854,-4.78,-2.11,-3.22
2020-06-29 10:43:44,0.070,-0.283,2.925,1.282,-1.221,1.099,-4.78,-2.14,-3.20
2020-06-29 10:43:44,0.027,-0.308,2.935,3.601,0.366,0.916,-4.76,-2.13,-3.20
2020-06-29 10:43:44,0.027,-0.237,2.960,3.662,1.343,0.732,-4.74,-2.10,-3.19
2020-06-29 10:43:44,0.067,-0.253,2.953,4.028,2.319,0.183,-4.69,-2.06,-3.19
2020-06-29 10:43:44,0.091,-0.218,2.917,1.465,1.648,-1.160,-4.68,-2.04,-3.20
2020-06-29 10:43:44,0.109,-0.256,2.921,-1.465,0.366,-1.038,-4.69,-2.03,-3.21
2020-06-29 10:43:44,0.154,-0.202,2.969,-4.517,-0.244,-0.427,-4.74,-2.04,-3.22
2020-06-29 10:43:44,0.211,-0.226,2.963,-3.967,-0.977,-1.038,-4.77,-2.05,-3.22
2020-06-29 10:43:44,0.226,-0.305,2.933,-1.953,-1.831,0.183,-4.78,-2.09,-3.22
2020-06-29 10:43:45,0.151,-0.285,2.898,0.732,-1.831,1.038,-4.79,-2.14,-3.21
2020-06-29 10:43:45,0.073,-0.320,2.924,3.845,-0.916,1.099,-4.76,-2.15,-3.20
2020-06-29 10:43:45,0.006,-0.275,2.962,4.211,0.305,0.488,-4.74,-2.14,-3.20
2020-06-29 10:43:45,0.021,-0.206,2.968,5.676,1.892,0.000,-4.68,-2.10,-3.20
2020-06-29 10:43:45,0.113,-0.164,2.947,5.432,2.258,-0.732,-4.62,-2.07,-3.21
2020-06-29 10:43:45,0.084,-0.171,2.903,1.953,1.221,-1.709,-4.59,-2.05,-3.22
2020-06-29 10:43:45,0.127,-0.203,2.893,-2.014,0.000,-1.160,-4.59,-2.05,-3.24
2020-06-29 10:43:45,0.191,-0.213,2.960,-5.188,-0.854,-1.221,-4.64,-2.07,-3.25
2020-06-29 10:43:45,0.211,-0.231,2.973,-5.737,-1.160,-0.549,-4.69,-2.09,-3.25
2020-06-29 10:43:45,0.195,-0.278,2.931,-2.808,-1.709,0.916,-4.71,-2.13,-3.24
2020-06-29 10:43:45,0.116,-0.273,2.890,0.366,-1.526,1.099,-4.72,-2.16,-3.23
2020-06-29 10:43:45,0.049,-0.292,2.933,2.502,-0.366,1.526,-4.70,-2.16,-3.21
2020-06-29 10:43:45,-0.013,-0.239,2.975,2.747,1.038,1.282,-4.69,-2.14,-3.20
2020-06-29 10:43:45,0.024,-0.224,2.959,3.601,2.258,0.000,-4.65,-2.09,-3.20
2020-06-29 10:43:45,0.056,-0.147,2.888,2.686,1.831,-0.610,-4.62,-2.06,-3.21
2020-06-29 10:43:45,0.106,-0.177,2.898,0.916,0.977,-1.221,-4.59,-2.04,-3.22
2020-06-29 10:43:45,0.152,-0.215,2.921,-3.418,0.000,-1.221,-4.61,-2.04,-3.24
2020-06-29 10:43:45,0.192,-0.240,2.963,-6.165,-1.221,-1.038,-4.67,-2.07,-3.25
2020-06-29 10:43:45,0.212,-0.264,2.971,-5.310,-1.526,0.000,-4.72,-2.10,-3.25
2020-06-29 10:43:45,0.211,-0.317,2.941,-2.563,-1.587,0.916,-4.75,-2.13,-3.24
2020-06-29 10:43:45,0.093,-0.289,2.901,0.244,-1.343,1.404,-4.76,-2.16,-3.22
2020-06-29 10:43:45,0.030,-0.301,2.925,2.808,0.000,1.526,-4.75,-2.16,-3.20
2020-06-29 10:43:45,0.004,-0.229,2.964,2.625,1.282,0.916,-4.73,-2.13,-3.20
2020-06-29 10:43:45,0.026,-0.228,2.938,3.113,2.441,0.305,-4.70,-2.08,-3.20
2020-06-29 10:43:45,0.104,-0.210,2.903,1.282,1.953,-0.549,-4.68,-2.05,-3.20
2020-06-29 10:43:45,0.130,-0.245,2.935,-1.465,0.366,-1.343,-4.69,-2.05,-3.21
2020-06-29 10:43:45,0.154,-0.250,2.963,-4.456,-0.366,-0.671,-4.74,-2.05,-3.22
2020-06-29 10:43:45,0.190,-0.231,2.960,-4.639,-1.221,-0.793,-4.78,-2.08,-3.23
2020-06-29 10:43:45,0.212,-0.321,2.937,-2.380,-1.465,0.000,-4.80,-2.11,-3.23
2020-06-29 10:43:45,0.182,-0.285,2.922,-0.244,-1.709,0.793,-4.82,-2.14,-3.22
2020-06-29 10:43:45,0.096,-0.333,2.914,3.357,-1.038,1.160,-4.80,-2.17,-3.21
2020-06-29 10:43:45,0.001,-0.295,2.951,4.028,0.244,0.488,-4.77,-2.16,-3.20
2020-06-29 10:43:45,-0.004,-0.188,2.963,5.127,1.831,0.183,-4.73,-2.12,-3.20
2020-06-29 10:43:45,0.078,-0.151,2.952,5.188,2.502,-0.610,-4.67,-2.08,-3.21
2020-06-29 10:43:45,0.093,-0.194,2.869,1.709,1.709,-1.709,-4.63,-2.05,-3.22
2020-06-29 10:43:45,0.161,-0.251,2.902,-2.380,-0.366,-0.977,-4.65,-2.05,-3.24
2020-06-29 10:43:45,0.195,-0.238,2.979,-5.249,-0.793,-0.977,-4.70,-2.08,-3.25
2020-06-29 10:43:45,0.187,-0.237,2.977,-4.639,-1.099,-0.916,-4.75,-2.10,-3.25
2020-06-29 10:43:45,0.187,-0.283,2.916,-1.648,-1.465,0.671,-4.76,-2.13,-3.25
2020-06-29 10:43:45,0.149,-0.265,2.905,1.282,-1.648,1.160,-4.76,-2.16,-3.24
2020-06-29 10:43:45,0.069,-0.323,2.939,3.479,-0.549,0.916,-4.73,-2.18,-3.22
2020-06-29 10:43:45,-0.017,-0.252,2.980,3.723,0.549,0.732,-4.71,-2.16,-3.22
2020-06-29 10:43:45,-0.019,-0.166,2.950,5.188,2.197,0.183,-4.66,-2.11,-3.22
2020-06-29 10:43:45,0.043,-0.093,2.880,4.578,2.319,-0.854,-4.60,-2.07,-3.22
2020-06-29 10:43:45,0.126,-0.144,2.873,1.526,1.038,-1.770,-4.55,-2.05,-3.25
2020-06-29 10:43:45,0.180,-0.222,2.925,-3.052,-0.427,-1.160,-4.56,-2.05,-3.26
2020-06-29 10:43:45,0.188,-0.265,2.980,-6.348,-1.465,-0.854,-4.63,-2.09,-3.26
2020-06-29 10:43:45,0.211,-0.271,2.992,-6.287,-1.709,0.000,-4.69,-2.12,-3.26
2020-06-29 10:43:45,0.191,-0.279,2.936,-2.930,-1.648,1.160,-4.73,-2.15,-3.25
2020-06-29 10:43:45,0.113,-0.287,2.902,0.366,-1.221,1.404,-4.73,-2.18,-3.24
2020-06-29 10:43:45,0.049,-0.299,2.935,2.075,-0.244,1.831,-4.72,-2.18,-3.22
2020-06-29 10:43:45,-0.003,-0.228,2.973,2.258,0.854,1.282,-4.71,-2.16,-3.20
2020-06-29 10:43:46,-0.020,-0.206,2.932,2.747,2.258,0.000,-4.68,-2.11,-3.21
2020-06-29 10:43:46,0.098,-0.136,2.910,1.648,2.258,-0.488,-4.66,-2.07,-3.21
2020-06-29 10:43:46,0.154,-0.203,2.915,-0.610,0.610,-1.160,-4.64,-2.06,-3.22
2020-06-29 10:43:46,0.170,-0.291,2.943,-4.395,-0.732,-0.977,-4.68,-2.08,-3.24
2020-06-29 10:43:46,0.188,-0.252,2.963,-5.798,-1.526,-0.916,-4.75,-2.10,-3.24
2020-06-29 10:43:46,0.201,-0.305,2.969,-3.540,-1.404,0.000,-4.78,-2.14,-3.24
2020-06-29 10:43:46,0.178,-0.296,2.924,-1.343,-1.221,0.977,-4.81,-2.16,-3.23
2020-06-29 10:43:46,0.117,-0.330,2.913,2.075,-0.977,0.977,-4.80,-2.19,-3.22
2020-06-29 10:43:46,0.016,-0.303,2.941,3.296,0.366,0.854,-4.78,-2.18,-3.21
2020-06-29 10:43:46,-0.013,-0.206,2.969,3.845,1.648,0.549,-4.75,-2.15,-3.21
2020-06-29 10:43:46,0.017,-0.148,2.931,3.845,2.502,-0.183,-4.71,-2.10,-3.21
2020-06-29 10:43:46,0.103,-0.184,2.849,1.404,2.136,-1.526,-4.67,-2.06,-3.23
2020-06-29 10:43:46,0.168,-0.250,2.904,-2.380,-0.244,-0.977,-4.69,-2.07,-3.24
2020-06-29 10:43:46,0.202,-0.272,2.980,-5.005,-0.793,-0.610,-4.74,-2.08,-3.24
2020-06-29 10:43:46,0.169,-0.265,2.967,-4.211,-1.404,-0.916,-4.78,-2.11,-3.25
2020-06-29 10:43:46,0.182,-0.290,2.929,-1.282,-1.343,0.305,-4.80,-2.14,-3.25
2020-06-29 10:43:46,0.144,-0.266,2.919,1.587,-1.526,1.282,-4.80,-2.17,-3.23
2020-06-29 10:43:46,0.099,-0.350,2.943,4.150,-0.610,0.916,-4.76,-2.18,-3.22
2020-06-29 10:43:46,-0.007,-0.274,2.973,4.211,0.000,0.244,-4.74,-2.18,-3.22
2020-06-29 10:43:46,-0.037,-0.146,2.961,6.042,2.014,0.244,-4.68,-2.13,-3.22
2020-06-29 10:43:46,0.006,-0.056,2.878,5.249,2.563,-0.916,-4.61,-2.08,-3.23
2020-06-29 10:43:46,0.116,-0.120,2.852,1.648,1.343,-1.648,-4.56,-2.05,-3.25
2020-06-29 10:43:46,0.192,-0.211,2.925,-3.235,-0.488,-1.160,-4.57,-2.06,-3.26
2020-06-29 10:43:46,0.208,-0.298,2.997,-5.981,-1.404,-1.038,-4.63,-2.09,-3.27
2020-06-29 10:43:46,0.190,-0.278,2.996,-5.798,-1.831,0.000,-4.69,-2.13,-3.27
2020-06-29 10:43:46,0.172,-0.258,2.933,-1.770,-1.282,1.099,-4.71,-2.15,-3.26
2020-06-29 10:43:46,0.108,-0.292,2.903,1.343,-0.916,1.160,-4.71,-2.18,-3.24
2020-06-29 10:43:46,0.076,-0.306,2.955,2.563,0.000,1.404,-4.69,-2.17,-3.23
2020-06-29 10:43:46,0.006,-0.251,2.981,3.052,0.610,1.038,-4.67,-2.16,-3.22
2020-06-29 10:43:46,-0.057,-0.163,2.946,3.601,2.197,-0.305,-4.64,-2.11,-3.22
2020-06-29 10:43:46,0.063,-0.067,2.907,2.869,2.441,-0.854,-4.60,-2.06,-3.24
2020-06-29 10:43:46,0.145,-0.126,2.888,0.427,0.977,-1.526,-4.56,-2.04,-3.25
2020-06-29 10:43:46,0.188,-0.274,2.918,-4.150,-0.916,-1.221,-4.58,-2.06,-3.26
2020-06-29 10:43:46,0.208,-0.288,2.986,-6.775,-1.892,-0.732,-4.65,-2.10,-3.27
2020-06-29 10:43:46,0.190,-0.311,2.994,-4.883,-1.648,0.000,-4.71,-2.13,-3.27
2020-06-29 10:43:46,0.154,-0.288,2.933,-2.014,-1.038,1.282,-4.74,-2.15,-3.25
2020-06-29 10:43:46,0.105,-0.312,2.907,1.282,-0.610,1.465,-4.74,-2.17,-3.24
2020-06-29 10:43:46,0.049,-0.314,2.948,2.625,0.305,1.343,-4.73,-2.16,-3.22
2020-06-29 10:43:46,-0.004,-0.233,2.971,2.502,1.282,0.732,-4.72,-2.14,-3.22
2020-06-29 10:43:46,-0.014,-0.161,2.934,2.808,2.197,0.244,-4.69,-2.09,-3.22
2020-06-29 10:43:46,0.081,-0.132,2.843,1.099,2.258,-1.099,-4.66,-2.05,-3.23
2020-06-29 10:43:46,0.159,-0.201,2.884,-1.892,0.000,-1.038,-4.66,-2.04,-3.24
2020-06-29 10:43:46,0.218,-0.260,2.958,-4.883,-0.854,-0.671,-4.70,-2.07,-3.25
2020-06-29 10:43:46,0.185,-0.291,2.969,-4.639,-1.831,-0.671,-4.75,-2.10,-3.25
2020-06-29 10:43:46,0.164,-0.303,2.947,-2.258,-1.526,0.305,-4.78,-2.14,-3.25
2020-06-29 10:43:46,0.122,-0.279,2.930,0.854,-1.221,1.160,-4.78,-2.15,-3.24
2020-06-29 10:43:46,0.105,-0.344,2.931,3.601,-0.366,0.916,-4.75,-2.16,-3.22
2020-06-29 10:43:46,0.031,-0.315,2.962,3.906,0.000,0.427,-4.74,-2.16,-3.22
2020-06-29 10:43:46,-0.032,-0.191,2.965,5.127,1.770,0.427,-4.70,-2.13,-3.22
2020-06-29 10:43:46,-0.012,-0.062,2.885,4.456,2.441,-0.854,-4.64,-2.08,-3.23
2020-06-29 10:43:46,0.082,-0.112,2.835,1.343,1.709,-1.648,-4.59,-2.04,-3.25
2020-06-29 10:43:46,0.184,-0.188,2.905,-3.235,0.000,-0.854,-4.60,-2.03,-3.26
2020-06-29 10:43:46,0.233,-0.284,2.991,-5.310,-1.404,-1.038,-4.65,-2.07,-3.26
2020-06-29 10:43:46,0.174,-0.301,2.992,-4.761,-1.892,-0.427,-4.70,-2.10,-3.27
2020-06-29 10:43:46,0.137,-0.259,2.933,-0.916,-1.099,0.854,-4.72,-2.13,-3.26
2020-06-29 10:43:46,0.097,-0.307,2.910,2.441,-0.854,1.282,-4.70,-2.14,-3.25
2020-06-29 10:43:46,0.092,-0.319,2.967,3.540,0.000,0.977,-4.68,-2.14,-3.24
2020-06-29 10:43:46,0.035,-0.284,2.982,4.272,0.366,0.366,-4.65,-2.13,-3.23
2020-06-29 10:43:46,-0.049,-0.170,2.939,5.127,2.075,0.000,-4.61,-2.09,-3.24
2020-06-29 10:43:46,0.031,-0.050,2.912,4.089,2.380,-1.160,-4.55,-2.04,-3.25
2020-06-29 10:43:46,0.116,-0.084,2.877,0.854,1.404,-1.587,-4.51,-2.02,-3.26
2020-06-29 10:43:46,0.185,-0.236,2.910,-3.784,-0.793,-1.221,-4.52,-2.03,-3.27
2020-06-29 10:43:46,0.226,-0.304,2.995,-6.836,-1.892,-0.732,-4.59,-2.06,-3.28
2020-06-29 10:43:46,0.187,-0.301,2.999,-5.737,-2.197,0.183,-4.65,-2.10,-3.28
2020-06-29 10:43:46,0.130,-0.268,2.932,-1.831,-1.404,1.404,-4.69,-2.13,-3.26
2020-06-29 10:43:46,0.089,-0.301,2.899,1.221,-0.549,1.465,-4.68,-2.14,-3.25
2020-06-29 10:43:46,0.073,-0.309,2.970,2.441,0.244,1.648,-4.67,-2.13,-3.23
2020-06-29 10:43:46,0.037,-0.277,2.982,2.380,0.916,1.038,-4.66,-2.11,-3.22
2020-06-29 10:43:46,-0.010,-0.194,2.945,2.441,1.831,0.000,-4.64,-2.08,-3.22
2020-06-29 10:43:46,0.053,-0.097,2.863,1.404,2.075,-0.916,-4.61,-2.04,-3.24
2020-06-29 10:43:46,0.139,-0.127,2.864,-1.099,0.671,-0.916,-4.60,-2.03,-3.24
2020-06-29 10:43:46,0.215,-0.249,2.927,-4.822,-0.854,-0.916,-4.63,-2.04,-3.25
2020-06-29 10:43:46,0.214,-0.287,2.970,-5.798,-2.014,-0.671,-4.69,-2.08,-3.26
2020-06-29 10:43:46,0.154,-0.325,2.959,-3.479,-1.892,0.549,-4.73,-2.12,-3.25
2020-06-29 10:43:46,0.095,-0.280,2.933,-0.610,-0.977,1.282,-4.75,-2.14,-3.24
2020-06-29 10:43:46,0.089,-0.323,2.911,2.563,0.000,1.099,-4.74,-2.14,-3.22
2020-06-29 10:43:46,0.057,-0.324,2.963,3.357,0.366,0.854,-4.72,-2.13,-3.22
2020-06-29 10:43:46,0.002,-0.251,2.971,3.479,1.648,0.488,-4.70,-2.10,-3.21
2020-06-29 10:43:46,-0.020,-0.109,2.898,2.930,2.075,-0.549,-4.67,-2.06,-3.22
2020-06-29 10:43:46,0.068,-0.111,2.849,0.610,1.709,-1.648,-4.64,-2.02,-3.24
2020-06-29 10:43:46,0.170,-0.169,2.896,-3.235,0.366,-0.793,-4.65,-2.01,-3.25
2020-06-29 10:43:46,0.242,-0.243,2.966,-4.883,-1.221,-0.854,-4.68,-2.04,-3.25
2020-06-29 10:43:46,0.187,-0.318,2.977,-3.784,-2.014,-0.793,-4.72,-2.08,-3.26
2020-06-29 10:43:46,0.112,-0.292,2.933,-1.099,-1.465,0.854,-4.74,-2.11,-3.25
2020-06-29 10:43:46,0.075,-0.282,2.928,2.625,-0.854,1.221,-4.72,-2.12,-3.24
2020-06-29 10:43:46,0.088,-0.341,2.952,4.272,0.000,0.488,-4.69,-2.11,-3.24
2020-06-29 10:43:46,0.053,-0.285,2.982,4.578,0.366,0.427,-4.66,-2.10,-3.23
2020-06-29 10:43:46,-0.008,-0.197,2.950,5.920,2.014,0.000,-4.61,-2.07,-3.23
2020-06-29 10:43:46,0.025,-0.083,2.929,3.967,2.197,-1.404,-4.56,-2.03,-3.25
2020-06-29 10:43:46,0.079,-0.107,2.873,0.305,1.221,-1.404,-4.53,-2.01,-3.26
2020-06-29 10:43:46,0.175,-0.197,2.916,-3.784,-0.244,-0.793,-4.55,-2.01,-3.27
2020-06-29 10:43:46,0.246,-0.302,2.991,-6.104,-1.709,-1.038,-4.60,-2.03,-3.28
2020-06-29 10:43:46,0.188,-0.306,2.987,-4.822,-2.380,0.244,-4.66,-2.08,-3.27
2020-06-29 10:43:46,0.103,-0.278,2.917,-0.610,-1.465,1.343,-4.68,-2.11,-3.26
2020-06-29 10:43:46,0.083,-0.285,2.919,2.258,-0.549,1.160,-4.66,-2.11,-3.25
2020-06-29 10:43:46,0.070,-0.315,2.976,3.235,0.305,1.282,-4.64,-2.11,-3.24
2020-06-29 10:43:46,0.068,-0.284,2.992,3.479,0.977,0.671,-4.62,-2.09,-3.23
2020-06-29 10:43:46,0.019,-0.212,2.949,3.662,1.648,-0.610,-4.59,-2.07,-3.24
2020-06-29 10:43:46,0.040,-0.093,2.888,2.319,1.953,-1.099,-4.56,-2.03,-3.25
2020-06-29 10:43:46,0.106,-0.099,2.857,-0.671,0.793,-1.526,-4.54,-2.01,-3.26
2020-06-29 10:43:46,0.202,-0.218,2.918,-4.761,-0.671,-0.977,-4.56,-2.02,-3.27
2020-06-29 10:43:46,0.231,-0.278,2.982,-6.714,-2.014,-0.854,-4.63,-2.06,-3.28
2020-06-29 10:43:46,0.172,-0.324,2.967,-4.456,-2.136,0.671,-4.68,-2.10,-3.27
2020-06-29 10:43:46,0.172,-0.324,2.967,-1.404,-1.099,1.282,-4.71,-2.13,-3.26
2020-06-29 10:43:46,0.077,-0.270,2.919,-1.404,-1.099,1.282,-4.74,-2.15,-3.25
2020-06-29 10:43:46,0.068,-0.289,2.911,2.197,0.000,1.404,-4.72,-2.14,-3.23
2020-06-29 10:43:46,0.050,-0.316,2.969,2.502,0.793,1.526,-4.71,-2.12,-3.22
2020-06-29 10:43:46,0.055,-0.272,2.978,2.502,1.648,0.610,-4.70,-2.09,-3.21
2020-06-29 10:43:46,0.004,-0.167,2.910,2.075,1.648,-0.366,-4.68,-2.07,-3.22
2020-06-29 10:43:46,0.063,-0.102,2.877,0.427,1.465,-0.977,-4.66,-2.03,-3.23
2020-06-29 10:43:46,0.150,-0.141,2.881,-2.747,0.610,-1.038,-4.66,-2.02,-3.24
2020-06-29 10:43:46,0.229,-0.213,2.938,-4.883,-1.099,-0.732,-4.69,-2.04,-3.25
2020-06-29 10:43:46,0.203,-0.301,2.960,-4.333,-2.136,-0.610,-4.73,-2.09,-3.25
2020-06-29 10:43:46,0.138,-0.315,2.938,-1.892,-1.831,0.732,-4.76,-2.12,-3.24
2020-06-29 10:43:46,0.060,-0.281,2.923,1.404,-1.160,1.160,-4.76,-2.14,-3.23
2020-06-29 10:43:46,0.069,-0.313,2.937,4.150,0.305,0.732,-4.72,-2.13,-3.22
2020-06-29 10:43:46,0.063,-0.301,2.976,4.150,0.732,0.488,-4.70,-2.11,-3.22
2020-06-29 10:43:46,0.044,-0.227,2.973,4.822,1.953,0.000,-4.66,-2.08,-3.22
2020-06-29 10:43:46,0.012,-0.149,2.918,3.113,2.014,-1.282,-4.63,-2.05,-3.23
2020-06-29 10:43:46,0.059,-0.143,2.879,-0.244,1.221,-1.282,-4.61,-2.02,-3.25
2020-06-29 10:43:46,0.151,-0.194,2.916,-4.028,0.000,-0.671,-4.64,-2.01,-3.25
2020-06-29 10:43:46,0.235,-0.244,2.984,-5.127,-1.160,-1.038,-4.67,-2.03,-3.26
2020-06-29 10:43:46,0.206,-0.324,2.960,-3.296,-2.136,0.000,-4.71,-2.08,-3.26
2020-06-29 10:43:46,0.114,-0.289,2.917,-0.183,-1.709,1.282,-4.73,-2.11,-3.25
2020-06-29 10:43:46,0.064,-0.284,2.922,3.174,-0.549,1.160,-4.71,-2.12,-3.24
2020-06-29 10:43:46,0.067,-0.310,2.976,4.517,0.427,0.732,-4.67,-2.10,-3.23
2020-06-29 10:43:46,0.076,-0.263,2.982,4.822,1.099,0.488,-4.64,-2.09,-3.22
2020-06-29 10:43:46,0.062,-0.211,2.964,5.493,1.953,-0.732,-4.58,-2.06,-3.23
2020-06-29 10:43:46,0.044,-0.146,2.899,2.991,1.892,-1.282,-4.55,-2.04,-3.25
2020-06-29 10:43:46,0.087,-0.111,2.882,-0.671,0.610,-1.526,-4.54,-2.02,-3.26
2020-06-29 10:43:46,0.180,-0.167,2.928,-4.456,-0.183,-1.160,-4.56,-2.02,-3.27
2020-06-29 10:43:46,0.244,-0.266,2.983,-6.592,-1.770,-0.854,-4.61,-2.05,-3.28
2020-06-29 10:43:46,0.184,-0.294,2.948,-4.944,-2.502,0.916,-4.66,-2.10,-3.27
2020-06-29 10:43:46,0.093,-0.274,2.916,-1.038,-1.465,1.404,-4.69,-2.13,-3.26
2020-06-29 10:43:46,0.057,-0.259,2.911,1.709,-0.183,1.160,-4.67,-2.13,-3.24
2020-06-29 10:43:46,0.029,-0.306,2.970,2.686,0.793,1.892,-4.65,-2.11,-3.22
2020-06-29 10:43:46,0.079,-0.271,2.977,2.502,1.892,0.732,-4.64,-2.07,-3.22
2020-06-29 10:43:46,0.084,-0.215,2.955,2.502,1.404,-0.793,-4.62,-2.05,-3.23
2020-06-29 10:43:46,0.056,-0.116,2.904,0.732,1.404,-0.854,-4.61,-2.04,-3.24
2020-06-29 10:43:46,0.115,-0.142,2.887,-1.770,0.793,-1.160,-4.60,-2.02,-3.25
2020-06-29 10:43:46,0.204,-0.201,2.918,-5.249,-0.793,-0.671,-4.64,-2.03,-3.26
2020-06-29 10:43:46,0.218,-0.263,2.974,-5.493,-1.892,-0.732,-4.69,-2.07,-3.26
2020-06-29 10:43:46,0.160,-0.336,2.938,-3.052,-1.892,0.854,-4.72,-2.11,-3.25
2020-06-29 10:43:46,0.068,-0.270,2.916,-0.366,-1.404,1.404,-4.74,-2.13,-3.24
2020-06-29 10:43:46,0.039,-0.294,2.911,3.235,0.000,1.038,-4.71,-2.12,-3.22
2020-06-29 10:43:46,0.043,-0.291,2.966,3.113,1.038,1.038,-4.70,-2.10,-3.22
2020-06-29 10:43:46,0.063,-0.253,2.978,3.418,2.014,0.244,-4.67,-2.07,-3.21
2020-06-29 10:43:46,0.037,-0.199,2.916,2.136,1.770,-0.732,-4.65,-2.04,-3.22
2020-06-29 10:43:46,0.049,-0.184,2.886,-0.549,0.977,-1.282,-4.65,-2.02,-3.24
2020-06-29 10:43:47,0.152,-0.196,2.914,-3.723,0.000,-0.610,-4.67,-2.01,-3.25
2020-06-29 10:43:47,0.216,-0.196,2.958,-4.700,-1.099,-1.099,-4.71,-2.03,-3.25
2020-06-29 10:43:47,0.231,-0.332,2.962,-2.869,-1.770,-0.305,-4.73,-2.07,-3.26
2020-06-29 10:43:47,0.150,-0.302,2.921,-0.916,-1.953,1.099,-4.76,-2.11,-3.24
2020-06-29 10:43:47,0.074,-0.298,2.924,3.174,-0.793,0.916,-4.74,-2.13,-3.24
2020-06-29 10:43:47,0.031,-0.307,2.954,4.456,0.305,0.488,-4.71,-2.11,-3.23
2020-06-29 10:43:47,0.061,-0.254,2.972,5.127,1.404,0.427,-4.67,-2.09,-3.22
2020-06-29 10:43:47,0.065,-0.230,2.959,5.676,2.075,-0.549,-4.61,-2.05,-3.24
2020-06-29 10:43:47,0.071,-0.203,2.904,2.808,1.892,-1.709,-4.58,-2.03,-3.25
2020-06-29 10:43:47,0.088,-0.175,2.906,-1.099,0.244,-1.160,-4.59,-2.02,-3.26
2020-06-29 10:43:47,0.166,-0.174,2.950,-4.272,0.000,-1.038,-4.62,-2.02,-3.27
2020-06-29 10:43:47,0.226,-0.247,2.976,-5.554,-1.404,-1.343,-4.66,-2.05,-3.28
2020-06-29 10:43:47,0.208,-0.285,2.938,-3.540,-2.197,0.671,-4.70,-2.09,-3.28
2020-06-29 10:43:47,0.125,-0.287,2.898,0.000,-1.709,1.160,-4.70,-2.13,-3.26
2020-06-29 10:43:47,0.055,-0.282,2.917,2.502,-0.671,1.038,-4.69,-2.14,-3.25
2020-06-29 10:43:47,0.010,-0.293,2.970,3.540,0.610,1.526,-4.66,-2.12,-3.24
2020-06-29 10:43:47,0.064,-0.252,2.974,3.906,1.831,0.244,-4.64,-2.08,-3.24
2020-06-29 10:43:47,0.101,-0.199,2.964,3.845,1.648,-0.793,-4.60,-2.06,-3.25
2020-06-29 10:43:47,0.075,-0.142,2.916,1.770,1.282,-0.916,-4.57,-2.04,-3.26
2020-06-29 10:43:47,0.110,-0.166,2.900,-1.709,0.244,-1.465,-4.57,-2.04,-3.27
2020-06-29 10:43:47,0.187,-0.200,2.939,-5.493,-0.854,-0.854,-4.61,-2.05,-3.28
2020-06-29 10:43:47,0.220,-0.248,2.975,-6.104,-1.709,-0.427,-4.66,-2.08,-3.28
2020-06-29 10:43:47,0.191,-0.318,2.937,-3.784,-2.075,1.038,-4.70,-2.12,-3.27
2020-06-29 10:43:47,0.092,-0.256,2.900,-0.854,-1.587,1.099,-4.73,-2.15,-3.26
2020-06-29 10:43:47,0.039,-0.292,2.906,2.625,0.000,1.587,-4.71,-2.15,-3.24
2020-06-29 10:43:47,0.015,-0.258,2.963,2.441,1.160,1.709,-4.69,-2.12,-3.22
2020-06-29 10:43:47,0.056,-0.253,2.973,2.808,2.258,0.244,-4.67,-2.08,-3.22
2020-06-29 10:43:47,0.068,-0.201,2.901,1.709,1.648,-0.610,-4.65,-2.05,-3.24
2020-06-29 10:43:47,0.088,-0.198,2.901,-0.183,0.671,-0.977,-4.65,-2.04,-3.25
2020-06-29 10:43:47,0.142,-0.204,2.924,-3.662,0.244,-0.793,-4.67,-2.04,-3.25
2020-06-29 10:43:47,0.191,-0.203,2.945,-5.066,-1.038,-1.038,-4.72,-2.05,-3.26
2020-06-29 10:43:47,0.225,-0.285,2.953,-3.540,-1.587,-0.183,-4.75,-2.09,-3.26
2020-06-29 10:43:47,0.185,-0.321,2.930,-1.587,-1.770,0.916,-4.77,-2.13,-3.25
2020-06-29 10:43:47,0.080,-0.287,2.918,1.587,-1.160,1.038,-4.77,-2.15,-3.24
2020-06-29 10:43:47,0.030,-0.308,2.927,4.089,0.244,1.038,-4.74,-2.14,-3.23
2020-06-29 10:43:47,0.027,-0.243,2.964,4.211,1.526,0.732,-4.71,-2.11,-3.22
2020-06-29 10:43:47,0.040,-0.224,2.953,4.883,2.502,0.000,-4.66,-2.07,-3.22
2020-06-29 10:43:47,0.099,-0.207,2.917,2.563,2.075,-1.282,-4.63,-2.04,-3.24
2020-06-29 10:43:47,0.095,-0.233,2.927,-1.160,0.427,-1.221,-4.64,-2.03,-3.25
2020-06-29 10:43:47,0.142,-0.217,2.968,-4.517,0.000,-0.549,-4.68,-2.03,-3.26
2020-06-29 10:43:47,0.210,-0.221,2.972,-4.822,-1.099,-1.160,-4.72,-2.05,-3.27
2020-06-29 10:43:47,0.219,-0.284,2.942,-2.502,-1.770,0.000,-4.74,-2.09,-3.27
2020-06-29 10:43:47,0.167,-0.288,2.899,0.366,-1.831,1.221,-4.75,-2.13,-3.25
2020-06-29 10:43:47,0.081,-0.290,2.914,3.235,-0.977,1.038,-4.72,-2.15,-3.24
2020-06-29 10:43:47,0.009,-0.301,2.958,4.211,0.366,0.732,-4.69,-2.14,-3.24
2020-06-29 10:43:47,0.027,-0.197,2.976,5.066,1.892,0.488,-4.65,-2.10,-3.23
2020-06-29 10:43:47,0.092,-0.195,2.950,5.676,2.319,-0.610,-4.59,-2.06,-3.24
2020-06-29 10:43:47,0.085,-0.167,2.886,2.563,1.770,-1.404,-4.55,-2.04,-3.26
2020-06-29 10:43:47,0.119,-0.210,2.897,-1.099,0.000,-1.404,-4.55,-2.04,-3.27
2020-06-29 10:43:47,0.175,-0.204,2.960,-5.127,-0.488,-0.793,-4.60,-2.05,-3.28
2020-06-29 10:43:47,0.208,-0.267,2.980,-6.287,-1.404,-0.793,-4.65,-2.08,-3.28
2020-06-29 10:43:47,0.200,-0.265,2.937,-4.150,-1.953,0.916,-4.70,-2.11,-3.27
2020-06-29 10:43:47,0.151,-0.296,2.897,-0.366,-1.770,1.343,-4.71,-2.15,-3.26
2020-06-29 10:43:47,0.052,-0.267,2.924,1.648,-0.732,1.526,-4.70,-2.16,-3.24
2020-06-29 10:43:47,-0.011,-0.265,2.968,2.686,0.793,1.831,-4.68,-2.14,-3.22
2020-06-29 10:43:47,0.019,-0.211,2.965,2.808,1.953,0.427,-4.66,-2.10,-3.22
2020-06-29 10:43:47,0.104,-0.188,2.938,2.502,1.770,-0.488,-4.63,-2.06,-3.23
2020-06-29 10:43:47,0.102,-0.141,2.920,0.549,0.916,-0.977,-4.61,-2.05,-3.24
2020-06-29 10:43:47,0.141,-0.243,2.908,-2.380,0.183,-1.282,-4.62,-2.05,-3.25
2020-06-29 10:43:47,0.175,-0.213,2.954,-5.859,-1.160,-0.732,-4.67,-2.07,-3.26
2020-06-29 10:43:47,0.205,-0.248,2.974,-4.944,-1.221,-0.732,-4.72,-2.10,-3.26
2020-06-29 10:43:47,0.204,-0.316,2.939,-2.747,-1.587,1.038,-4.75,-2.13,-3.25
2020-06-29 10:43:47,0.115,-0.285,2.895,-0.183,-1.526,1.221,-4.76,-2.16,-3.24
2020-06-29 10:43:47,0.042,-0.306,2.918,3.052,0.000,1.038,-4.74,-2.16,-3.23
2020-06-29 10:43:47,-0.004,-0.238,2.962,2.930,1.160,1.160,-4.72,-2.14,-3.22
2020-06-29 10:43:47,0.010,-0.210,2.948,3.723,2.319,0.549,-4.69,-2.09,-3.21
2020-06-29 10:43:47,0.082,-0.197,2.903,2.136,2.197,-0.977,-4.66,-2.05,-3.22
2020-06-29 10:43:47,0.108,-0.231,2.917,-0.854,0.549,-1.465,-4.66,-2.04,-3.24
2020-06-29 10:43:47,0.151,-0.276,2.948,-4.150,-0.244,-0.305,-4.70,-2.04,-3.25
2020-06-29 10:43:47,0.186,-0.220,2.968,-4.944,-1.160,-1.099,-4.76,-2.07,-3.26
2020-06-29 10:43:47,0.211,-0.294,2.947,-2.502,-1.343,-0.732,-4.77,-2.10,-3.26
2020-06-29 10:43:47,0.196,-0.283,2.925,-0.366,-1.831,1.404,-4.79,-2.13,-3.25
2020-06-29 10:43:47,0.105,-0.309,2.908,2.991,-1.221,0.977,-4.77,-2.16,-3.24
2020-06-29 10:43:47,0.031,-0.323,2.951,4.150,-0.183,0.549,-4.74,-2.16,-3.23
2020-06-29 10:43:47,-0.002,-0.174,2.973,4.822,1.404,0.549,-4.71,-2.13,-3.22
2020-06-29 10:43:47,0.019,-0.187,2.922,6.165,2.625,-0.244,-4.63,-2.08,-3.23
2020-06-29 10:43:47,0.100,-0.188,2.866,2.747,2.197,-1.526,-4.59,-2.04,-3.25
2020-06-29 10:43:47,0.139,-0.222,2.925,-1.221,0.000,-1.465,-4.60,-2.05,-3.26
2020-06-29 10:43:47,0.156,-0.255,2.987,-4.761,-0.305,-0.793,-4.64,-2.05,-3.27
2020-06-29 10:43:47,0.194,-0.248,2.983,-5.676,-1.221,-1.038,-4.70,-2.08,-3.28
2020-06-29 10:43:47,0.208,-0.254,2.931,-2.930,-1.709,0.244,-4.73,-2.11,-3.27
2020-06-29 10:43:47,0.174,-0.268,2.908,0.427,-1.587,1.221,-4.73,-2.15,-3.26
2020-06-29 10:43:47,0.083,-0.281,2.915,2.563,-0.916,1.221,-4.71,-2.16,-3.25
2020-06-29 10:43:47,0.001,-0.288,2.964,3.479,0.183,1.343,-4.68,-2.16,-3.24
2020-06-29 10:43:47,-0.010,-0.173,2.970,4.028,1.831,0.244,-4.65,-2.12,-3.24
2020-06-29 10:43:47,0.083,-0.158,2.958,4.456,2.319,-0.488,-4.59,-2.07,-3.24
2020-06-29 10:43:47,0.090,-0.125,2.871,1.709,1.526,-1.282,-4.56,-2.05,-3.25
2020-06-29 10:43:47,0.150,-0.241,2.899,-1.343,0.000,-1.526,-4.55,-2.05,-3.27
2020-06-29 10:43:47,0.179,-0.242,2.976,-6.165,-1.038,-0.977,-4.61,-2.07,-3.28
2020-06-29 10:43:47,0.195,-0.252,2.988,-6.287,-1.404,-0.854,-4.68,-2.10,-3.28
2020-06-29 10:43:47,0.192,-0.298,2.926,-3.784,-1.709,0.793,-4.72,-2.13,-3.27
2020-06-29 10:43:47,0.160,-0.269,2.900,-0.732,-1.587,1.221,-4.74,-2.16,-3.26
2020-06-29 10:43:47,0.071,-0.298,2.917,1.953,-0.610,1.526,-4.72,-2.18,-3.25
2020-06-29 10:43:47,-0.014,-0.258,2.960,2.319,0.610,1.282,-4.71,-2.16,-3.24
2020-06-29 10:43:47,-0.010,-0.202,2.951,2.747,2.014,0.610,-4.69,-2.12,-3.23
2020-06-29 10:43:47,0.063,-0.138,2.910,2.136,2.197,-0.366,-4.66,-2.08,-3.24
2020-06-29 10:43:47,0.122,-0.181,2.890,0.244,1.099,-1.465,-4.64,-2.05,-3.25
2020-06-29 10:43:47,0.171,-0.276,2.920,-3.357,0.000,-0.732,-4.66,-2.06,-3.26
2020-06-29 10:43:47,0.176,-0.237,2.966,-5.676,-1.221,-0.854,-4.72,-2.09,-3.27
2020-06-29 10:43:47,0.201,-0.273,2.972,-3.906,-1.282,-0.793,-4.76,-2.11,-3.27
2020-06-29 10:43:48,0.188,-0.297,2.932,-1.709,-1.465,0.732,-4.78,-2.14,-3.26
2020-06-29 10:43:48,0.128,-0.301,2.907,1.587,-1.343,1.160,-4.77,-2.17,-3.25
2020-06-29 10:43:48,0.056,-0.334,2.932,3.540,-0.305,0.732,-4.75,-2.18,-3.25
2020-06-29 10:43:48,-0.019,-0.223,2.965,3.906,0.916,0.366,-4.73,-2.15,-3.24
2020-06-29 10:43:48,-0.021,-0.187,2.931,5.005,2.380,0.549,-4.67,-2.11,-3.24
2020-06-29 10:43:48,0.083,-0.138,2.901,2.869,2.441,-1.343,-4.64,-2.06,-3.25
2020-06-29 10:43:48,0.144,-0.226,2.923,-0.610,0.610,-1.526,-4.63,-2.05,-3.27
2020-06-29 10:43:48,0.164,-0.284,2.969,-4.456,-0.671,-0.671,-4.66,-2.07,-3.27
2020-06-29 10:43:48,0.191,-0.267,2.986,-5.127,-1.099,-0.977,-4.72,-2.09,-3.28
2020-06-29 10:43:48,0.202,-0.267,2.963,-2.808,-1.587,-0.427,-4.76,-2.12,-3.28
2020-06-29 10:43:48,0.183,-0.273,2.908,0.427,-1.404,1.160,-4.76,-2.15,-3.27
2020-06-29 10:43:48,0.122,-0.318,2.908,3.174,-1.221,1.221,-4.73,-2.18,-3.26
2020-06-29 10:43:48,0.034,-0.319,2.958,4.028,-0.183,0.732,-4.71,-2.18,-3.25
2020-06-29 10:43:48,-0.012,-0.186,2.984,5.005,1.404,0.305,-4.67,-2.15,-3.25
2020-06-29 10:43:48,-0.007,-0.172,2.919,5.798,2.563,0.000,-4.60,-2.10,-3.25
2020-06-29 10:43:48,0.089,-0.127,2.858,3.113,2.197,-1.709,-4.56,-2.05,-3.27
2020-06-29 10:43:48,0.167,-0.209,2.914,-0.549,0.000,-1.587,-4.54,-2.05,-3.29
2020-06-29 10:43:48,0.177,-0.259,2.976,-5.249,-0.916,-0.854,-4.59,-2.08,-3.30
2020-06-29 10:43:48,0.184,-0.291,2.982,-6.470,-1.465,-0.916,-4.66,-2.10,-3.31
2020-06-29 10:43:48,0.197,-0.255,2.957,-4.333,-1.770,0.488,-4.71,-2.14,-3.30
2020-06-29 10:43:48,0.177,-0.266,2.913,-0.305,-1.343,1.404,-4.72,-2.16,-3.28
2020-06-29 10:43:48,0.100,-0.302,2.917,1.587,-0.916,1.465,-4.71,-2.19,-3.27
2020-06-29 10:43:48,0.003,-0.285,2.958,2.502,0.305,1.587,-4.69,-2.18,-3.25
2020-06-29 10:43:48,-0.008,-0.202,2.972,2.869,1.709,0.916,-4.67,-2.14,-3.25
2020-06-29 10:43:48,0.044,-0.132,2.952,2.808,2.319,-0.366,-4.64,-2.09,-3.25
2020-06-29 10:43:48,0.099,-0.124,2.856,1.343,1.770,-1.221,-4.60,-2.07,-3.26
2020-06-29 10:43:48,0.165,-0.236,2.894,-1.770,-0.183,-1.099,-4.60,-2.07,-3.27
2020-06-29 10:43:48,0.193,-0.278,2.975,-6.104,-1.160,-0.793,-4.66,-2.09,-3.28
2020-06-29 10:43:48,0.176,-0.257,2.982,-5.737,-1.404,-0.977,-4.72,-2.12,-3.29
2020-06-29 10:43:48,0.182,-0.319,2.932,-2.808,-1.404,0.549,-4.75,-2.15,-3.28
2020-06-29 10:43:48,0.141,-0.278,2.912,-0.366,-1.221,1.526,-4.77,-2.17,-3.27
2020-06-29 10:43:48,0.087,-0.334,2.925,2.747,0.000,1.099,-4.75,-2.18,-3.26
2020-06-29 10:43:48,-0.008,-0.271,2.956,2.808,0.610,0.671,-4.74,-2.16,-3.25
2020-06-29 10:43:48,-0.035,-0.175,2.953,3.723,2.197,0.854,-4.71,-2.12,-3.24
2020-06-29 10:43:48,0.021,-0.095,2.896,2.869,2.625,-0.732,-4.67,-2.07,-3.25
2020-06-29 10:43:48,0.126,-0.177,2.862,0.183,1.343,-1.648,-4.64,-2.04,-3.27
2020-06-29 10:43:48,0.185,-0.271,2.925,-3.906,-0.549,-0.671,-4.66,-2.05,-3.27
2020-06-29 10:43:48,0.204,-0.272,2.982,-5.371,-1.221,-0.854,-4.72,-2.08,-3.28
2020-06-29 10:43:48,0.186,-0.292,2.977,-3.601,-1.648,-0.793,-4.76,-2.11,-3.29
2020-06-29 10:43:48,0.171,-0.271,2.926,-0.671,-1.343,0.854,-4.78,-2.14,-3.28
2020-06-29 10:43:48,0.125,-0.319,2.912,2.747,-1.282,1.099,-4.76,-2.16,-3.27
2020-06-29 10:43:48,0.083,-0.342,2.956,3.906,-0.488,0.732,-4.74,-2.17,-3.26
2020-06-29 10:43:48,-0.010,-0.239,2.976,4.700,0.549,0.305,-4.71,-2.16,-3.26
2020-06-29 10:43:48,-0.050,-0.154,2.929,5.920,2.441,0.244,-4.65,-2.11,-3.26
2020-06-29 10:43:48,0.070,-0.090,2.885,3.906,2.563,-1.526,-4.59,-2.05,-3.27
2020-06-29 10:43:48,0.150,-0.164,2.899,0.183,0.854,-1.465,-4.56,-2.04,-3.29
2020-06-29 10:43:48,0.181,-0.283,2.958,-4.333,-0.854,-0.793,-4.59,-2.06,-3.30
2020-06-29 10:43:48,0.199,-0.305,2.999,-6.226,-1.404,-0.977,-4.66,-2.09,-3.31
2020-06-29 10:43:48,0.197,-0.266,2.985,-4.150,-1.953,0.000,-4.71,-2.13,-3.31
2020-06-29 10:43:48,0.162,-0.260,2.909,0.000,-1.282,1.160,-4.72,-2.15,-3.29
2020-06-29 10:43:48,0.117,-0.315,2.904,2.319,-1.038,1.343,-4.70,-2.17,-3.28
2020-06-29 10:43:48,0.052,-0.304,2.968,3.113,0.000,1.038,-4.69,-2.17,-3.27
2020-06-29 10:43:48,0.001,-0.231,2.990,3.845,1.160,0.305,-4.66,-2.15,-3.26
2020-06-29 10:43:48,-0.033,-0.154,2.918,4.089,2.258,-0.183,-4.61,-2.10,-3.27
2020-06-29 10:43:48,0.076,-0.093,2.852,2.808,2.258,-1.343,-4.57,-2.05,-3.28
2020-06-29 10:43:48,0.162,-0.170,2.896,-0.488,0.305,-1.770,-4.55,-2.05,-3.30
2020-06-29 10:43:48,0.193,-0.268,2.958,-5.493,-1.099,-1.038,-4.59,-2.07,-3.31
2020-06-29 10:43:48,0.187,-0.289,2.980,-6.836,-1.770,-0.671,-4.66,-2.11,-3.32
2020-06-29 10:43:48,0.191,-0.300,2.970,-4.517,-1.770,0.366,-4.72,-2.14,-3.31
2020-06-29 10:43:48,0.148,-0.252,2.920,-1.221,-1.099,1.465,-4.74,-2.16,-3.30
2020-06-29 10:43:48,0.105,-0.326,2.919,1.770,-0.488,1.770,-4.72,-2.18,-3.28
2020-06-29 10:43:48,0.021,-0.298,2.956,2.075,0.366,1.343,-4.72,-2.17,-3.26
2020-06-29 10:43:48,-0.013,-0.228,2.975,2.625,1.709,0.916,-4.71,-2.13,-3.26
2020-06-29 10:43:48,0.011,-0.100,2.935,2.258,2.197,0.000,-4.68,-2.09,-3.26
2020-06-29 10:43:48,0.099,-0.111,2.856,0.916,1.892,-1.221,-4.64,-2.05,-3.27
2020-06-29 10:43:48,0.175,-0.210,2.890,-2.563,0.000,-1.038,-4.64,-2.05,-3.28
2020-06-29 10:43:48,0.213,-0.276,2.971,-5.432,-1.282,-0.977,-4.69,-2.08,-3.29
2020-06-29 10:43:48,0.177,-0.288,2.980,-4.761,-1.709,-0.854,-4.75,-2.11,-3.30
2020-06-29 10:43:48,0.159,-0.298,2.943,-1.953,-1.526,0.366,-4.77,-2.14,-3.30
2020-06-29 10:43:48,0.112,-0.294,2.913,1.099,-1.160,1.160,-4.77,-2.16,-3.28
2020-06-29 10:43:48,0.110,-0.348,2.942,3.479,0.000,0.732,-4.75,-2.16,-3.27
2020-06-29 10:43:48,0.018,-0.287,2.961,3.906,0.244,0.427,-4.73,-2.16,-3.27
2020-06-29 10:43:48,-0.041,-0.185,2.955,4.944,2.258,0.610,-4.69,-2.12,-3.27
2020-06-29 10:43:48,0.003,-0.066,2.891,3.601,2.625,-1.160,-4.64,-2.07,-3.28
2020-06-29 10:43:48,0.108,-0.137,2.854,0.671,1.587,-1.526,-4.60,-2.03,-3.30
2020-06-29 10:43:48,0.178,-0.250,2.923,-3.967,-0.488,-0.610,-4.62,-2.04,-3.30
2020-06-29 10:43:48,0.230,-0.296,3.002,-5.615,-1.221,-0.793,-4.68,-2.07,-3.31
2020-06-29 10:43:48,0.178,-0.294,2.981,-3.845,-1.953,-0.427,-4.72,-2.11,-3.31
2020-06-29 10:43:48,0.146,-0.256,2.924,0.000,-1.099,0.977,-4.74,-2.13,-3.30
2020-06-29 10:43:48,0.110,-0.310,2.906,2.991,-0.916,1.587,-4.71,-2.14,-3.28
2020-06-29 10:43:48,0.100,-0.329,2.976,3.906,-0.244,0.854,-4.69,-2.15,-3.27
2020-06-29 10:43:48,0.017,-0.263,2.989,4.700,0.610,0.000,-4.65,-2.14,-3.27
2020-06-29 10:43:48,-0.056,-0.175,2.921,5.676,2.258,0.244,-4.60,-2.10,-3.27
2020-06-29 10:43:48,0.048,-0.058,2.883,3.967,2.563,-1.404,-4.55,-2.04,-3.29
2020-06-29 10:43:48,0.142,-0.116,2.889,0.488,1.221,-1.892,-4.51,-2.02,-3.31
2020-06-29 10:43:48,0.184,-0.235,2.937,-4.333,-0.793,-1.099,-4.53,-2.04,-3.32
2020-06-29 10:43:48,0.220,-0.327,2.996,-6.836,-1.648,-0.793,-4.60,-2.07,-3.33
2020-06-29 10:43:48,0.177,-0.283,2.994,-5.615,-2.136,0.000,-4.67,-2.11,-3.33
2020-06-29 10:43:48,0.133,-0.252,2.923,-1.099,-1.099,1.221,-4.69,-2.13,-3.31
2020-06-29 10:43:48,0.093,-0.313,2.896,1.526,-0.549,1.526,-4.68,-2.14,-3.30
2020-06-29 10:43:48,0.060,-0.305,2.972,2.197,0.244,1.587,-4.67,-2.14,-3.28
2020-06-29 10:43:48,0.010,-0.250,2.988,2.625,1.221,0.671,-4.66,-2.11,-3.28
2020-06-29 10:43:48,0.000,-0.166,2.941,2.563,2.075,0.000,-4.64,-2.07,-3.28
2020-06-29 10:43:48,0.052,-0.071,2.852,1.526,2.075,-0.977,-4.60,-2.03,-3.29
2020-06-29 10:43:48,0.150,-0.146,2.868,-0.916,0.671,-1.221,-4.58,-2.02,-3.30
2020-06-29 10:43:48,0.215,-0.267,2.945,-5.432,-1.099,-0.977,-4.62,-2.04,-3.31
2020-06-29 10:43:48,0.197,-0.290,2.974,-6.104,-1.953,-0.671,-4.69,-2.08,-3.32
2020-06-29 10:43:48,0.150,-0.326,2.956,-3.540,-1.831,0.549,-4.73,-2.11,-3.31
2020-06-29 10:43:48,0.109,-0.271,2.929,-0.732,-1.038,1.404,-4.75,-2.13,-3.30
2020-06-29 10:43:48,0.097,-0.339,2.918,2.502,-0.244,1.221,-4.73,-2.13,-3.28
2020-06-29 10:43:49,0.054,-0.318,2.971,2.808,0.305,0.793,-4.72,-2.13,-3.27
2020-06-29 10:43:49,-0.011,-0.248,2.974,3.418,1.587,0.793,-4.70,-2.10,-3.27
2020-06-29 10:43:49,-0.022,-0.098,2.900,2.625,2.136,-0.305,-4.68,-2.05,-3.27
2020-06-29 10:43:49,0.076,-0.113,2.835,0.671,1.770,-1.709,-4.64,-2.02,-3.29
2020-06-29 10:43:49,0.182,-0.195,2.898,-3.174,0.183,-0.732,-4.65,-2.01,-3.30
2020-06-29 10:43:49,0.235,-0.250,2.973,-5.188,-1.343,-0.793,-4.70,-2.04,-3.31
2020-06-29 10:43:49,0.189,-0.327,2.977,-3.723,-1.953,-0.793,-4.73,-2.08,-3.31
2020-06-29 10:43:49,0.128,-0.277,2.931,-1.282,-1.526,0.549,-4.76,-2.11,-3.31
2020-06-29 10:43:49,0.089,-0.303,2.920,2.930,-0.916,1.221,-4.74,-2.13,-3.29
2020-06-29 10:43:49,0.103,-0.349,2.955,3.906,0.000,0.671,-4.71,-2.12,-3.28
2020-06-29 10:43:49,0.044,-0.289,2.979,4.700,0.244,0.000,-4.69,-2.11,-3.28
2020-06-29 10:43:49,-0.027,-0.192,2.940,5.798,2.136,0.183,-4.64,-2.08,-3.28
2020-06-29 10:43:49,0.010,-0.057,2.912,3.967,2.319,-1.404,-4.59,-2.03,-3.30
2020-06-29 10:43:49,0.096,-0.099,2.866,0.610,1.404,-1.465,-4.55,-2.01,-3.32
2020-06-29 10:43:49,0.174,-0.208,2.917,-3.906,-0.488,-1.038,-4.56,-2.01,-3.33
2020-06-29 10:43:49,0.242,-0.306,3.005,-6.104,-1.526,-0.732,-4.61,-2.04,-3.33
2020-06-29 10:43:49,0.184,-0.288,2.991,-4.517,-2.441,0.000,-4.67,-2.09,-3.33
2020-06-29 10:43:49,0.116,-0.279,2.913,-0.244,-1.282,1.343,-4.68,-2.11,-3.32
2020-06-29 10:43:49,0.091,-0.286,2.907,2.441,-0.610,1.465,-4.66,-2.12,-3.30
2020-06-29 10:43:49,0.089,-0.323,2.977,3.540,0.244,1.221,-4.64,-2.11,-3.29
2020-06-29 10:43:49,0.045,-0.266,2.995,3.662,0.732,0.549,-4.62,-2.10,-3.28
2020-06-29 10:43:49,-0.022,-0.216,2.926,4.272,2.014,0.000,-4.58,-2.07,-3.28
2020-06-29 10:43:49,0.033,-0.064,2.884,2.625,2.075,-1.221,-4.55,-2.02,-3.30
2020-06-29 10:43:49,0.119,-0.100,2.874,0.000,1.099,-1.648,-4.52,-2.00,-3.32
2020-06-29 10:43:49,0.197,-0.219,2.923,-4.883,-0.732,-1.099,-4.54,-2.01,-3.33
2020-06-29 10:43:49,0.226,-0.304,2.978,-7.019,-2.014,-0.671,-4.61,-2.05,-3.33
2020-06-29 10:43:49,0.169,-0.305,2.982,-5.188,-2.197,0.488,-4.67,-2.09,-3.33
2020-06-29 10:43:49,0.098,-0.270,2.922,-1.404,-1.038,1.221,-4.70,-2.11,-3.31
2020-06-29 10:43:49,0.081,-0.298,2.908,1.648,-0.244,1.587,-4.69,-2.11,-3.30
2020-06-29 10:43:49,0.059,-0.318,2.967,2.441,0.610,1.404,-4.67,-2.10,-3.28
2020-06-29 10:43:49,0.039,-0.286,2.984,2.258,1.404,0.793,-4.67,-2.08,-3.28
2020-06-29 10:43:49,0.003,-0.155,2.927,2.014,1.770,0.000,-4.66,-2.04,-3.28
2020-06-29 10:43:49,0.059,-0.086,2.877,0.977,1.892,-1.099,-4.63,-2.01,-3.29
2020-06-29 10:43:49,0.138,-0.137,2.874,-2.197,0.732,-1.038,-4.62,-1.99,-3.30
2020-06-29 10:43:49,0.220,-0.234,2.937,-5.127,-1.099,-0.793,-4.65,-2.01,-3.31
2020-06-29 10:43:49,0.204,-0.306,2.969,-4.822,-1.953,-0.671,-4.70,-2.05,-3.31
2020-06-29 10:43:49,0.136,-0.310,2.942,-2.625,-1.953,0.427,-4.74,-2.09,-3.31
2020-06-29 10:43:49,0.067,-0.274,2.918,0.916,-1.221,1.343,-4.74,-2.11,-3.30
2020-06-29 10:43:49,0.089,-0.322,2.923,3.601,0.000,0.732,-4.71,-2.10,-3.28
2020-06-29 10:43:49,0.060,-0.309,2.978,3.967,0.305,0.427,-4.69,-2.09,-3.28
2020-06-29 10:43:49,0.033,-0.230,2.966,4.517,1.770,0.549,-4.66,-2.07,-3.28
2020-06-29 10:43:49,-0.015,-0.114,2.897,3.296,1.892,-1.099,-4.63,-2.03,-3.29
2020-06-29 10:43:49,0.063,-0.109,2.855,0.427,1.404,-1.587,-4.59,-2.00,-3.31
2020-06-29 10:43:49,0.154,-0.176,2.906,-3.601,0.000,-0.977,-4.60,-1.99,-3.32
2020-06-29 10:43:50,0.249,-0.253,2.979,-5.127,-1.221,-0.916,-4.65,-2.02,-3.32
2020-06-29 10:43:50,0.204,-0.323,2.973,-3.662,-2.258,-0.488,-4.68,-2.07,-3.33
2020-06-29 10:43:50,0.114,-0.283,2.922,-0.427,-1.404,0.671,-4.70,-2.10,-3.32
2020-06-29 10:43:50,0.080,-0.291,2.930,3.113,-0.732,1.282,-4.68,-2.10,-3.31
2020-06-29 10:43:50,0.089,-0.307,2.968,4.395,0.183,0.671,-4.65,-2.09,-3.30
2020-06-29 10:43:50,0.066,-0.294,2.990,5.005,0.732,0.183,-4.61,-2.08,-3.30
2020-06-29 10:43:50,0.013,-0.207,2.945,5.554,2.014,0.000,-4.56,-2.05,-3.30
2020-06-29 10:43:50,0.034,-0.107,2.929,3.784,2.014,-1.404,-4.52,-2.02,-3.32
2020-06-29 10:43:50,0.085,-0.085,2.886,0.183,1.160,-1.587,-4.49,-1.99,-3.33
2020-06-29 10:43:50,0.171,-0.195,2.922,-3.906,-0.366,-1.221,-4.50,-2.00,-3.35
2020-06-29 10:43:50,0.246,-0.282,2.989,-6.836,-1.831,-0.732,-4.56,-2.03,-3.35
2020-06-29 10:43:50,0.195,-0.307,2.985,-5.371,-2.563,0.366,-4.63,-2.08,-3.35
2020-06-29 10:43:50,0.099,-0.273,2.910,-1.221,-1.587,1.343,-4.65,-2.11,-3.33
2020-06-29 10:43:50,0.069,-0.278,2.908,1.587,-0.549,1.465,-4.64,-2.11,-3.32
2020-06-29 10:43:50,0.060,-0.295,2.967,2.625,0.610,1.831,-4.63,-2.10,-3.30
2020-06-29 10:43:50,0.077,-0.304,2.980,2.808,1.160,0.732,-4.61,-2.08,-3.29
2020-06-29 10:43:50,0.039,-0.213,2.958,2.625,1.648,-0.244,-4.60,-2.05,-3.30
