Record Time,ax,ay,az,wx,wy,wz,AngleX,AngleY,AngleZ
2020-06-29 10:50:24,0.952,0.399,2.351,8.240,-6.042,-0.366,4.45,-22.25,-35.59
2020-06-29 10:50:24,1.051,0.445,2.318,6.348,-9.155,-1.404,4.57,-22.34,-35.61
2020-06-29 10:50:24,1.093,0.386,2.303,2.686,-8.179,-1.648,4.67,-22.43,-35.64
2020-06-29 10:50:24,1.085,0.197,2.245,-2.380,-4.883,-1.343,4.70,-22.50,-35.66
2020-06-29 10:50:24,0.994,0.067,2.245,-6.165,0.793,-0.671,4.65,-22.53,-35.66
2020-06-29 10:50:24,0.883,-0.031,2.280,-7.751,5.798,0.183,4.54,-22.48,-35.66
2020-06-29 10:50:24,0.851,-0.075,2.266,-5.920,8.545,1.160,4.42,-22.38,-35.63
2020-06-29 10:50:24,0.804,-0.013,2.339,-1.953,7.935,1.709,4.33,-22.29,-35.61
2020-06-29 10:50:24,0.816,0.151,2.341,3.052,3.662,1.587,4.30,-22.22,-35.59
2020-06-29 10:50:24,0.891,0.313,2.369,7.080,-2.014,0.549,4.37,-22.21,-35.58
2020-06-29 10:50:24,0.997,0.401,2.334,7.996,-7.202,-0.671,4.48,-22.26,-35.60
2020-06-29 10:50:24,1.076,0.418,2.298,5.798,-9.216,-1.465,4.60,-22.36,-35.62
2020-06-29 10:50:24,1.076,0.348,2.281,1.587,-7.507,-1.587,4.68,-22.46,-35.65
2020-06-29 10:50:24,1.077,0.153,2.235,-3.479,-3.418,-1.160,4.69,-22.52,-35.66
2020-06-29 10:50:24,1.012,-0.015,2.238,-7.141,2.258,-0.488,4.61,-22.52,-35.67
2020-06-29 10:50:24,0.895,-0.041,2.270,-7.507,6.958,0.427,4.49,-22.47,-35.66
2020-06-29 10:50:24,0.816,-0.022,2.312,-4.700,9.033,1.221,4.38,-22.37,-35.63
2020-06-29 10:50:24,0.786,0.035,2.330,-0.854,7.385,1.709,4.31,-22.27,-35.61
2020-06-29 10:50:24,0.834,0.169,2.341,4.028,2.258,1.221,4.31,-22.22,-35.60
2020-06-29 10:50:24,0.925,0.326,2.367,7.568,-3.540,0.183,4.38,-22.23,-35.60
2020-06-29 10:50:24,1.006,0.416,2.328,7.568,-7.935,-1.038,4.50,-22.29,-35.61
2020-06-29 10:50:24,1.077,0.431,2.297,4.639,-8.972,-1.648,4.61,-22.39,-35.64
2020-06-29 10:50:24,1.104,0.293,2.276,0.000,-6.714,-1.587,4.68,-22.48,-35.66
2020-06-29 10:50:24,1.027,0.162,2.251,-4.700,-1.953,-1.099,4.66,-22.53,-35.68
2020-06-29 10:50:24,0.957,0.015,2.233,-7.751,3.723,-0.244,4.58,-22.51,-35.67
2020-06-29 10:50:24,0.889,-0.097,2.286,-7.263,7.996,0.610,4.47,-22.44,-35.66
2020-06-29 10:50:24,0.820,-0.060,2.294,-3.784,8.850,1.526,4.35,-22.34,-35.64
2020-06-29 10:50:24,0.780,0.100,2.347,0.549,6.042,1.709,4.29,-22.25,-35.61
2020-06-29 10:50:24,0.829,0.265,2.377,5.493,0.977,1.038,4.32,-22.21,-35.60
2020-06-29 10:50:24,0.954,0.390,2.350,8.179,-5.066,0.000,4.42,-22.23,-35.61
2020-06-29 10:50:24,1.038,0.417,2.341,7.019,-8.728,-1.221,4.55,-22.31,-35.63
2020-06-29 10:50:24,1.085,0.376,2.281,3.601,-8.484,-1.587,4.65,-22.40,-35.65
2020-06-29 10:50:24,1.070,0.261,2.260,-1.099,-5.676,-1.343,4.69,-22.48,-35.67
2020-06-29 10:50:24,1.000,0.108,2.252,-5.371,-0.427,-0.732,4.66,-22.52,-35.68
2020-06-29 10:50:24,0.933,-0.010,2.252,-7.751,4.700,0.000,4.56,-22.48,-35.67
2020-06-29 10:50:24,0.871,-0.065,2.303,-6.531,8.423,1.099,4.44,-22.40,-35.66
2020-06-29 10:50:24,0.799,-0.009,2.311,-2.747,8.301,1.770,4.35,-22.30,-35.63
2020-06-29 10:50:24,0.786,0.135,2.352,1.831,4.639,1.648,4.31,-22.23,-35.61
2020-06-29 10:50:24,0.855,0.272,2.362,6.165,-0.732,0.854,4.36,-22.20,-35.60
2020-06-29 10:50:24,0.968,0.379,2.346,8.057,-6.348,-0.427,4.47,-22.24,-35.61
2020-06-29 10:50:24,1.047,0.428,2.318,5.859,-9.155,-1.404,4.58,-22.32,-35.63
2020-06-29 10:50:24,1.091,0.383,2.281,2.197,-8.179,-1.648,4.67,-22.42,-35.66
2020-06-29 10:50:24,1.084,0.191,2.243,-2.747,-4.395,-1.282,4.70,-22.49,-35.67
2020-06-29 10:50:24,0.986,0.071,2.253,-6.836,1.038,-0.610,4.63,-22.51,-35.68
2020-06-29 10:50:24,0.886,-0.016,2.268,-7.813,5.920,0.366,4.52,-22.46,-35.67
2020-06-29 10:50:24,0.848,-0.082,2.279,-5.798,8.667,1.221,4.41,-22.37,-35.65
2020-06-29 10:50:24,0.810,-0.023,2.325,-1.770,7.629,1.770,4.32,-22.27,-35.62
2020-06-29 10:50:24,0.818,0.169,2.345,3.296,3.296,1.526,4.29,-22.21,-35.61
2020-06-29 10:50:24,0.890,0.334,2.377,7.202,-2.319,0.549,4.36,-22.20,-35.60
2020-06-29 10:50:24,1.004,0.418,2.332,8.118,-7.324,-0.671,4.48,-22.26,-35.62
2020-06-29 10:50:24,1.082,0.410,2.304,5.371,-9.155,-1.404,4.60,-22.36,-35.64
2020-06-29 10:50:24,1.086,0.322,2.275,1.099,-7.263,-1.526,4.67,-22.45,-35.66
2020-06-29 10:50:24,1.060,0.159,2.224,-3.662,-2.869,-1.038,4.68,-22.51,-35.67
2020-06-29 10:50:24,1.011,-0.017,2.243,-7.263,2.563,-0.366,4.60,-22.51,-35.68
2020-06-29 10:50:24,0.903,-0.068,2.272,-7.324,7.446,0.610,4.47,-22.46,-35.66
2020-06-29 10:50:24,0.809,-0.010,2.313,-4.272,8.911,1.404,4.36,-22.36,-35.64
2020-06-29 10:50:24,0.787,0.079,2.334,-0.366,6.958,1.770,4.30,-22.26,-35.62
2020-06-29 10:50:24,0.837,0.193,2.358,4.578,1.892,1.160,4.32,-22.21,-35.60
2020-06-29 10:50:24,0.929,0.324,2.364,7.751,-4.028,0.000,4.40,-22.22,-35.61
2020-06-29 10:50:24,1.012,0.400,2.332,7.263,-8.301,-1.038,4.51,-22.29,-35.62
2020-06-29 10:50:24,1.076,0.415,2.297,4.395,-8.850,-1.648,4.62,-22.38,-35.65
2020-06-29 10:50:24,1.096,0.297,2.271,-0.366,-6.470,-1.526,4.68,-22.47,-35.67
2020-06-29 10:50:24,1.035,0.140,2.247,-5.066,-1.648,-0.977,4.66,-22.52,-35.68
2020-06-29 10:50:24,0.955,0.016,2.243,-7.996,4.028,-0.183,4.57,-22.50,-35.68
2020-06-29 10:50:24,0.873,-0.071,2.294,-6.897,8.301,0.732,4.45,-22.42,-35.67
2020-06-29 10:50:24,0.801,-0.047,2.289,-3.601,8.789,1.526,4.35,-22.32,-35.64
2020-06-29 10:50:24,0.778,0.099,2.356,0.793,5.615,1.526,4.29,-22.24,-35.62
2020-06-29 10:50:24,0.839,0.264,2.357,5.859,0.305,0.793,4.33,-22.20,-35.61
2020-06-29 10:50:24,0.956,0.390,2.367,8.240,-5.737,-0.305,4.43,-22.23,-35.62
2020-06-29 10:50:24,1.037,0.429,2.338,6.714,-8.972,-1.343,4.55,-22.31,-35.64
2020-06-29 10:50:24,1.096,0.374,2.277,3.235,-8.484,-1.648,4.66,-22.40,-35.67
2020-06-29 10:50:24,1.066,0.252,2.275,-1.587,-5.371,-1.343,4.70,-22.48,-35.69
2020-06-29 10:50:24,0.989,0.108,2.237,-5.737,0.000,-0.671,4.66,-22.51,-35.69
2020-06-29 10:50:24,0.928,-0.042,2.250,-7.996,5.005,0.183,4.55,-22.47,-35.69
2020-06-29 10:50:24,0.876,-0.081,2.298,-6.348,8.606,1.160,4.43,-22.39,-35.67
2020-06-29 10:50:24,0.795,0.004,2.318,-2.502,8.423,1.770,4.33,-22.29,-35.64
2020-06-29 10:50:24,0.786,0.160,2.354,2.380,4.333,1.648,4.30,-22.21,-35.62
2020-06-29 10:50:24,0.867,0.289,2.368,6.531,-1.099,0.732,4.36,-22.19,-35.61
2020-06-29 10:50:24,0.985,0.375,2.344,7.996,-6.836,-0.488,4.47,-22.24,-35.62
2020-06-29 10:50:24,1.050,0.409,2.314,5.981,-9.094,-1.282,4.59,-22.32,-35.65
2020-06-29 10:50:24,1.083,0.362,2.280,2.075,-7.935,-1.587,4.67,-22.42,-35.67
2020-06-29 10:50:24,1.087,0.179,2.240,-2.930,-4.089,-1.221,4.69,-22.49,-35.68
2020-06-29 10:50:24,0.983,0.077,2.258,-6.775,1.587,-0.610,4.63,-22.51,-35.69
2020-06-29 10:50:24,0.881,-0.009,2.275,-7.568,6.470,0.305,4.52,-22.45,-35.68
2020-06-29 10:50:24,0.853,-0.078,2.283,-5.432,8.850,1.160,4.41,-22.35,-35.66
2020-06-29 10:50:24,0.810,-0.021,2.322,-1.526,7.751,1.770,4.32,-22.26,-35.63
2020-06-29 10:50:25,0.816,0.167,2.345,3.540,2.930,1.526,4.30,-22.20,-35.62
2020-06-29 10:50:25,0.889,0.343,2.378,7.507,-2.563,0.427,4.37,-22.19,-35.62
2020-06-29 10:50:25,1.004,0.424,2.333,7.813,-7.568,-0.732,4.49,-22.25,-35.63
2020-06-29 10:50:25,1.089,0.411,2.321,5.188,-9.094,-1.465,4.61,-22.35,-35.65
2020-06-29 10:50:25,1.094,0.303,2.266,0.549,-7.019,-1.526,4.68,-22.44,-35.68
2020-06-29 10:50:25,1.047,0.163,2.229,-4.028,-2.686,-1.099,4.67,-22.49,-35.69
2020-06-29 10:50:25,0.994,-0.007,2.242,-7.446,2.930,-0.366,4.60,-22.49,-35.69
2020-06-29 10:50:25,0.898,-0.075,2.265,-7.263,7.568,0.610,4.47,-22.43,-35.68
2020-06-29 10:50:25,0.809,-0.023,2.310,-4.272,8.972,1.404,4.36,-22.34,-35.66
2020-06-29 10:50:25,0.789,0.092,2.342,0.000,6.714,1.709,4.30,-22.24,-35.63
2020-06-29 10:50:25,0.838,0.218,2.359,4.944,1.709,1.038,4.32,-22.19,-35.62
2020-06-29 10:50:25,0.927,0.347,2.362,7.813,-4.395,0.000,4.41,-22.20,-35.62
2020-06-29 10:50:25,1.013,0.399,2.338,7.263,-8.545,-1.099,4.53,-22.28,-35.64
2020-06-29 10:50:25,1.076,0.398,2.293,4.333,-8.789,-1.587,4.63,-22.37,-35.67
2020-06-29 10:50:25,1.088,0.295,2.279,-0.549,-6.226,-1.404,4.69,-22.46,-35.69
2020-06-29 10:50:25,1.041,0.116,2.237,-5.005,-1.404,-0.916,4.67,-22.50,-35.70
2020-06-29 10:50:25,0.967,0.001,2.246,-7.874,4.089,0.000,4.57,-22.48,-35.69
2020-06-29 10:50:25,0.861,-0.042,2.304,-6.592,8.423,0.854,4.45,-22.41,-35.68
2020-06-29 10:50:25,0.783,-0.019,2.300,-3.357,8.728,1.648,4.36,-22.30,-35.65
2020-06-29 10:50:25,0.783,0.108,2.349,1.038,5.249,1.648,4.31,-22.22,-35.63
2020-06-29 10:50:25,0.855,0.254,2.358,5.920,0.000,0.854,4.35,-22.18,-35.62
2020-06-29 10:50:25,0.950,0.382,2.356,8.240,-5.859,-0.305,4.45,-22.21,-35.63
2020-06-29 10:50:25,1.028,0.433,2.337,6.653,-8.972,-1.343,4.58,-22.30,-35.65
2020-06-29 10:50:25,1.096,0.375,2.279,3.113,-8.423,-1.648,4.67,-22.39,-35.68
2020-06-29 10:50:25,1.072,0.261,2.280,-1.892,-5.188,-1.343,4.71,-22.47,-35.69
2020-06-29 10:50:25,1.001,0.100,2.233,-5.920,0.244,-0.854,4.67,-22.49,-35.71
2020-06-29 10:50:25,0.945,-0.061,2.254,-8.057,5.188,0.000,4.57,-22.46,-35.70
2020-06-29 10:50:25,0.875,-0.086,2.288,-6.165,8.728,1.099,4.44,-22.37,-35.68
2020-06-29 10:50:25,0.783,0.015,2.336,-2.197,8.301,1.709,4.34,-22.28,-35.66
2020-06-29 10:50:25,0.786,0.181,2.351,2.563,4.211,1.587,4.32,-22.20,-35.63
2020-06-29 10:50:25,0.884,0.296,2.365,6.714,-1.404,0.610,4.38,-22.18,-35.63
2020-06-29 10:50:25,0.989,0.375,2.345,7.935,-6.958,-0.549,4.49,-22.23,-35.64
2020-06-29 10:50:25,1.050,0.399,2.314,5.920,-8.972,-1.343,4.61,-22.32,-35.66
2020-06-29 10:50:25,1.072,0.347,2.278,1.892,-7.568,-1.587,4.69,-22.41,-35.68
2020-06-29 10:50:25,1.083,0.175,2.246,-3.052,-3.906,-1.282,4.70,-22.47,-35.71
2020-06-29 10:50:25,0.986,0.063,2.251,-6.958,1.709,-0.610,4.64,-22.49,-35.71
2020-06-29 10:50:25,0.878,-0.003,2.271,-7.263,6.714,0.427,4.53,-22.43,-35.70
2020-06-29 10:50:25,0.840,-0.068,2.305,-5.310,8.789,1.343,4.42,-22.34,-35.68
2020-06-29 10:50:25,0.816,-0.017,2.313,-1.404,7.385,1.770,4.33,-22.24,-35.65
2020-06-29 10:50:25,0.820,0.171,2.347,3.845,2.869,1.404,4.32,-22.19,-35.63
2020-06-29 10:50:25,0.896,0.342,2.380,7.568,-2.869,0.366,4.39,-22.19,-35.63
2020-06-29 10:50:25,1.006,0.435,2.324,7.690,-7.690,-0.793,4.51,-22.24,-35.65
2020-06-29 10:50:25,1.077,0.411,2.326,5.005,-9.094,-1.465,4.63,-22.34,-35.67
2020-06-29 10:50:25,1.107,0.279,2.271,0.305,-6.897,-1.404,4.70,-22.43,-35.69
2020-06-29 10:50:25,1.046,0.146,2.222,-4.395,-2.441,-1.038,4.68,-22.48,-35.71
2020-06-29 10:50:25,0.977,0.009,2.253,-7.507,3.052,-0.183,4.60,-22.48,-35.71
2020-06-29 10:50:25,0.889,-0.063,2.267,-6.775,7.874,0.732,4.48,-22.41,-35.69
2020-06-29 10:50:25,0.816,-0.034,2.313,-4.211,8.789,1.465,4.37,-22.32,-35.67
2020-06-29 10:50:25,0.802,0.086,2.337,0.000,6.409,1.709,4.31,-22.23,-35.64
2020-06-29 10:50:25,0.842,0.230,2.364,5.188,1.404,1.038,4.33,-22.18,-35.63
2020-06-29 10:50:25,0.926,0.370,2.361,7.996,-4.700,0.000,4.43,-22.20,-35.63
2020-06-29 10:50:25,1.020,0.406,2.336,7.019,-8.545,-1.099,4.55,-22.27,-35.65
2020-06-29 10:50:25,1.075,0.379,2.298,4.028,-8.789,-1.587,4.65,-22.37,-35.68
2020-06-29 10:50:25,1.089,0.288,2.271,-0.977,-6.042,-1.465,4.70,-22.45,-35.70
2020-06-29 10:50:25,1.040,0.089,2.233,-5.371,-1.038,-0.916,4.67,-22.49,-35.71
2020-06-29 10:50:25,0.966,-0.009,2.255,-7.935,4.272,0.000,4.56,-22.47,-35.71
2020-06-29 10:50:25,0.844,-0.029,2.297,-6.409,8.606,0.916,4.45,-22.40,-35.69
2020-06-29 10:50:25,0.774,-0.006,2.316,-3.052,8.545,1.709,4.36,-22.29,-35.66
2020-06-29 10:50:25,0.788,0.104,2.346,1.404,5.005,1.648,4.32,-22.20,-35.64
2020-06-29 10:50:25,0.869,0.251,2.351,6.104,-0.366,0.854,4.36,-22.18,-35.63
2020-06-29 10:50:25,0.947,0.393,2.369,8.301,-6.104,-0.366,4.46,-22.21,-35.64
2020-06-29 10:50:25,1.027,0.437,2.320,6.653,-9.033,-1.343,4.59,-22.30,-35.66
2020-06-29 10:50:25,1.096,0.370,2.285,2.808,-8.301,-1.587,4.68,-22.39,-35.69
2020-06-29 10:50:25,1.062,0.254,2.282,-2.319,-4.883,-1.343,4.71,-22.46,-35.71
2020-06-29 10:50:25,0.986,0.096,2.226,-6.042,0.732,-0.732,4.67,-22.48,-35.71
2020-06-29 10:50:25,0.936,-0.061,2.260,-7.751,5.615,0.183,4.57,-22.44,-35.71
2020-06-29 10:50:25,0.872,-0.103,2.287,-6.226,8.728,1.160,4.44,-22.35,-35.68
2020-06-29 10:50:25,0.788,0.008,2.327,-2.014,8.118,1.648,4.34,-22.26,-35.66
2020-06-29 10:50:25,0.783,0.196,2.355,2.991,4.028,1.526,4.32,-22.19,-35.64
2020-06-29 10:50:25,0.895,0.316,2.366,6.775,-1.892,0.549,4.39,-22.16,-35.64
2020-06-29 10:50:25,0.999,0.391,2.345,7.813,-7.202,-0.732,4.50,-22.22,-35.65
2020-06-29 10:50:25,1.054,0.394,2.313,5.737,-9.155,-1.465,4.62,-22.31,-35.67
2020-06-29 10:50:25,1.074,0.321,2.277,1.404,-7.507,-1.648,4.69,-22.41,-35.70
2020-06-29 10:50:25,1.063,0.173,2.244,-3.601,-3.479,-1.282,4.70,-22.47,-35.72
2020-06-29 10:50:25,1.000,0.041,2.243,-7.202,2.014,-0.488,4.63,-22.47,-35.72
2020-06-29 10:50:25,0.899,-0.021,2.265,-7.202,7.080,0.427,4.52,-22.42,-35.71
2020-06-29 10:50:25,0.834,-0.045,2.318,-4.944,8.850,1.343,4.41,-22.32,-35.69
2020-06-29 10:50:25,0.808,0.011,2.306,-1.099,7.324,1.709,4.33,-22.23,-35.66
2020-06-29 10:50:25,0.822,0.180,2.359,4.150,2.625,1.282,4.32,-22.18,-35.65
2020-06-29 10:50:25,0.906,0.344,2.369,7.690,-3.296,0.183,4.40,-22.18,-35.65
2020-06-29 10:50:25,1.012,0.429,2.322,7.507,-7.996,-0.916,4.52,-22.24,-35.66
2020-06-29 10:50:25,1.075,0.416,2.332,4.883,-8.972,-1.526,4.64,-22.34,-35.69
2020-06-29 10:50:25,1.110,0.277,2.263,0.000,-6.836,-1.404,4.70,-22.43,-35.71
2020-06-29 10:50:25,1.049,0.132,2.232,-4.578,-2.319,-0.977,4.68,-22.48,-35.72
2020-06-29 10:50:25,0.955,0.036,2.255,-7.568,3.418,0.000,4.59,-22.48,-35.72
2020-06-29 10:50:25,0.864,-0.049,2.271,-6.897,8.118,0.854,4.48,-22.40,-35.70
2020-06-29 10:50:25,0.811,-0.051,2.311,-4.089,8.606,1.587,4.37,-22.30,-35.68
2020-06-29 10:50:25,0.811,0.067,2.331,0.366,6.042,1.709,4.31,-22.21,-35.66
2020-06-29 10:50:25,0.845,0.244,2.364,5.432,1.038,0.916,4.33,-22.18,-35.65
2020-06-29 10:50:25,0.927,0.387,2.363,8.057,-5.066,-0.183,4.43,-22.20,-35.65
2020-06-29 10:50:25,1.032,0.427,2.334,7.080,-8.789,-1.282,4.56,-22.27,-35.67
2020-06-29 10:50:25,1.079,0.369,2.297,3.662,-8.606,-1.648,4.66,-22.37,-35.69
2020-06-29 10:50:25,1.079,0.260,2.276,-1.404,-5.737,-1.404,4.70,-22.45,-35.72
2020-06-29 10:50:25,1.034,0.066,2.223,-5.432,-0.610,-0.793,4.67,-22.48,-35.73
2020-06-29 10:50:25,0.958,-0.014,2.257,-7.935,4.578,0.000,4.56,-22.46,-35.72
2020-06-29 10:50:25,0.840,-0.023,2.305,-6.287,8.728,1.038,4.44,-22.38,-35.70
2020-06-29 10:50:25,0.779,0.014,2.319,-2.808,8.484,1.709,4.36,-22.27,-35.68
2020-06-29 10:50:25,0.803,0.116,2.337,1.587,4.639,1.648,4.32,-22.19,-35.66
2020-06-29 10:50:25,0.879,0.255,2.359,6.287,-0.671,0.732,4.37,-22.17,-35.65
2020-06-29 10:50:25,0.953,0.393,2.357,8.301,-6.287,-0.427,4.47,-22.21,-35.66
2020-06-29 10:50:25,1.030,0.437,2.313,6.348,-8.972,-1.282,4.59,-22.30,-35.68
2020-06-29 10:50:26,1.081,0.373,2.296,2.686,-7.996,-1.587,4.69,-22.38,-35.71
2020-06-29 10:50:26,1.061,0.236,2.277,-2.441,-4.456,-1.221,4.71,-22.46,-35.72
2020-06-29 10:50:26,0.993,0.075,2.231,-6.592,1.099,-0.610,4.66,-22.47,-35.73
2020-06-29 10:50:26,0.921,-0.048,2.267,-7.568,6.104,0.244,4.56,-22.42,-35.72
2020-06-29 10:50:26,0.862,-0.092,2.289,-5.859,8.850,1.221,4.43,-22.34,-35.69
2020-06-29 10:50:26,0.793,-0.001,2.327,-1.831,7.935,1.587,4.34,-22.24,-35.67
2020-06-29 10:50:26,0.794,0.192,2.357,3.174,3.662,1.465,4.32,-22.17,-35.66
2020-06-29 10:50:26,0.903,0.335,2.367,7.019,-2.380,0.427,4.39,-22.16,-35.65
2020-06-29 10:50:26,1.010,0.407,2.342,7.813,-7.385,-0.732,4.52,-22.21,-35.67
2020-06-29 10:50:26,1.063,0.391,2.310,5.310,-9.033,-1.465,4.63,-22.31,-35.69
2020-06-29 10:50:26,1.073,0.299,2.269,0.916,-7.446,-1.526,4.70,-22.41,-35.71
2020-06-29 10:50:26,1.043,0.183,2.242,-3.784,-3.052,-1.099,4.69,-22.46,-35.73
2020-06-29 10:50:26,0.993,0.020,2.245,-7.263,2.380,-0.366,4.62,-22.46,-35.73
2020-06-29 10:50:26,0.914,-0.059,2.257,-7.324,7.324,0.549,4.50,-22.40,-35.72
2020-06-29 10:50:26,0.833,-0.047,2.324,-4.761,8.728,1.465,4.38,-22.31,-35.69
2020-06-29 10:50:26,0.797,0.042,2.316,-0.488,7.019,1.770,4.32,-22.22,-35.67
2020-06-29 10:50:26,0.823,0.202,2.366,4.639,2.258,1.282,4.32,-22.16,-35.65
2020-06-29 10:50:26,0.927,0.343,2.351,7.751,-3.967,0.183,4.41,-22.18,-35.66
2020-06-29 10:50:26,1.030,0.418,2.338,7.568,-8.423,-0.977,4.53,-22.25,-35.67
2020-06-29 10:50:26,1.070,0.411,2.308,4.944,-8.850,-1.526,4.64,-22.35,-35.69
2020-06-29 10:50:26,1.093,0.257,2.268,-0.244,-6.653,-1.343,4.70,-22.43,-35.72
2020-06-29 10:50:26,1.033,0.129,2.245,-5.005,-1.831,-0.916,4.67,-22.48,-35.73
2020-06-29 10:50:26,0.947,0.047,2.254,-7.507,3.784,0.000,4.58,-22.47,-35.72
2020-06-29 10:50:26,0.857,-0.058,2.277,-6.775,8.240,0.793,4.48,-22.39,-35.71
2020-06-29 10:50:26,0.824,-0.056,2.307,-3.906,8.484,1.587,4.37,-22.29,-35.68
2020-06-29 10:50:26,0.803,0.078,2.331,0.610,5.859,1.648,4.31,-22.21,-35.66
2020-06-29 10:50:26,0.837,0.261,2.370,5.737,0.549,0.916,4.34,-22.17,-35.65
2020-06-29 10:50:26,0.935,0.409,2.356,8.179,-5.310,-0.244,4.44,-22.19,-35.66
2020-06-29 10:50:26,1.047,0.435,2.337,6.714,-9.094,-1.282,4.57,-22.27,-35.68
2020-06-29 10:50:26,1.085,0.377,2.294,3.601,-8.606,-1.648,4.67,-22.37,-35.71
2020-06-29 10:50:26,1.068,0.249,2.278,-1.648,-5.493,-1.343,4.71,-22.45,-35.72
2020-06-29 10:50:26,1.038,0.045,2.215,-5.920,-0.305,-0.793,4.67,-22.48,-35.73
2020-06-29 10:50:26,0.944,-0.021,2.267,-7.935,4.944,0.000,4.55,-22.46,-35.73
2020-06-29 10:50:26,0.827,-0.013,2.300,-6.165,8.789,1.038,4.44,-22.37,-35.71
2020-06-29 10:50:26,0.773,0.021,2.324,-2.502,8.484,1.587,4.36,-22.26,-35.68
2020-06-29 10:50:26,0.807,0.113,2.341,1.709,4.639,1.526,4.33,-22.18,-35.67
2020-06-29 10:50:26,0.887,0.254,2.350,6.287,-0.977,0.671,4.37,-22.16,-35.66
2020-06-29 10:50:26,0.954,0.386,2.365,8.179,-6.409,-0.549,4.47,-22.21,-35.67
2020-06-29 10:50:26,1.039,0.436,2.304,6.226,-8.972,-1.343,4.59,-22.29,-35.69
2020-06-29 10:50:26,1.074,0.382,2.310,2.380,-7.996,-1.526,4.69,-22.38,-35.72
2020-06-29 10:50:26,1.069,0.212,2.264,-2.747,-4.395,-1.160,4.71,-22.45,-35.73
2020-06-29 10:50:26,1.009,0.045,2.230,-6.714,1.160,-0.549,4.65,-22.46,-35.74
2020-06-29 10:50:26,0.904,-0.046,2.272,-7.507,6.348,0.366,4.54,-22.42,-35.73
2020-06-29 10:50:26,0.846,-0.072,2.283,-5.615,8.789,1.343,4.42,-22.33,-35.71
2020-06-29 10:50:26,0.790,-0.009,2.322,-1.526,7.874,1.648,4.33,-22.23,-35.68
2020-06-29 10:50:26,0.810,0.177,2.355,3.418,3.418,1.465,4.31,-22.16,-35.66
2020-06-29 10:50:26,0.910,0.332,2.355,7.202,-2.563,0.366,4.38,-22.15,-35.66
2020-06-29 10:50:27,1.015,0.416,2.349,7.996,-7.629,-0.793,4.50,-22.22,-35.67
2020-06-29 10:50:27,1.075,0.409,2.300,5.554,-9.033,-1.526,4.63,-22.31,-35.70
2020-06-29 10:50:27,1.076,0.297,2.282,0.732,-7.446,-1.526,4.70,-22.41,-35.72
2020-06-29 10:50:27,1.034,0.185,2.241,-3.906,-3.052,-1.099,4.69,-22.47,-35.74
2020-06-29 10:50:27,0.994,0.011,2.243,-7.324,2.502,-0.366,4.62,-22.47,-35.74
2020-06-29 10:50:27,0.921,-0.085,2.255,-7.568,7.324,0.549,4.49,-22.41,-35.73
2020-06-29 10:50:27,0.841,-0.045,2.318,-4.761,8.728,1.404,4.37,-22.32,-35.71
2020-06-29 10:50:27,0.788,0.062,2.324,-0.366,7.019,1.709,4.31,-22.23,-35.68
2020-06-29 10:50:27,0.822,0.213,2.370,4.639,2.014,1.160,4.32,-22.18,-35.67
2020-06-29 10:50:27,0.933,0.344,2.346,7.690,-4.150,0.000,4.41,-22.18,-35.67
2020-06-29 10:50:27,1.035,0.414,2.341,7.507,-8.484,-1.099,4.53,-22.26,-35.69
2020-06-29 10:50:27,1.066,0.411,2.298,4.700,-8.911,-1.587,4.64,-22.36,-35.71
2020-06-29 10:50:27,1.088,0.257,2.269,-0.244,-6.531,-1.404,4.70,-22.45,-35.73
2020-06-29 10:50:27,1.026,0.139,2.250,-5.005,-1.648,-0.854,4.67,-22.49,-35.74
2020-06-29 10:50:27,0.939,0.055,2.253,-7.507,3.967,0.000,4.58,-22.47,-35.74
2020-06-29 10:50:27,0.864,-0.058,2.281,-6.714,8.301,0.793,4.48,-22.39,-35.72
2020-06-29 10:50:27,0.826,-0.064,2.300,-3.845,8.606,1.587,4.37,-22.29,-35.70
2020-06-29 10:50:27,0.800,0.068,2.337,0.732,5.859,1.648,4.31,-22.21,-35.68
2020-06-29 10:50:27,0.833,0.263,2.364,5.737,0.549,0.977,4.33,-22.17,-35.67
2020-06-29 10:50:27,0.942,0.407,2.362,8.240,-5.432,-0.183,4.44,-22.20,-35.67
2020-06-29 10:50:27,1.056,0.443,2.326,6.897,-8.850,-1.282,4.57,-22.27,-35.69
2020-06-29 10:50:27,1.092,0.380,2.296,3.479,-8.606,-1.587,4.67,-22.37,-35.72
2020-06-29 10:50:27,1.068,0.246,2.268,-1.587,-5.371,-1.343,4.71,-22.46,-35.74
2020-06-29 10:50:27,1.023,0.052,2.230,-5.859,0.000,-0.793,4.67,-22.48,-35.74
2020-06-29 10:50:27,0.937,-0.028,2.263,-7.813,5.066,0.000,4.56,-22.45,-35.74
2020-06-29 10:50:27,0.838,-0.029,2.289,-6.409,8.728,0.977,4.44,-22.37,-35.72
2020-06-29 10:50:27,0.779,0.016,2.330,-2.502,8.301,1.587,4.35,-22.26,-35.70
2020-06-29 10:50:27,0.804,0.128,2.345,2.014,4.456,1.526,4.32,-22.18,-35.68
2020-06-29 10:50:27,0.883,0.257,2.348,5.981,-1.221,0.610,4.37,-22.16,-35.67
2020-06-29 10:50:27,0.973,0.375,2.366,8.118,-6.592,-0.610,4.47,-22.21,-35.68
2020-06-29 10:50:27,1.044,0.433,2.285,6.165,-8.972,-1.404,4.59,-22.30,-35.71
2020-06-29 10:50:27,1.072,0.378,2.311,2.197,-8.179,-1.526,4.68,-22.40,-35.73
2020-06-29 10:50:27,1.076,0.199,2.248,-2.686,-4.028,-1.160,4.71,-22.46,-35.75
2020-06-29 10:50:27,1.020,0.028,2.237,-6.897,1.221,-0.488,4.64,-22.47,-35.76
2020-06-29 10:50:27,0.904,-0.041,2.276,-7.507,6.592,0.366,4.53,-22.43,-35.74
2020-06-29 10:50:27,0.830,-0.056,2.290,-5.615,8.911,1.343,4.41,-22.34,-35.72
2020-06-29 10:50:27,0.793,-0.007,2.317,-1.648,7.751,1.770,4.32,-22.24,-35.69
2020-06-29 10:50:27,0.819,0.157,2.354,3.540,3.296,1.465,4.31,-22.17,-35.68
2020-06-29 10:50:27,0.912,0.316,2.355,7.080,-2.686,0.427,4.37,-22.17,-35.67
2020-06-29 10:50:27,1.013,0.419,2.352,7.996,-7.629,-0.793,4.49,-22.23,-35.69
2020-06-29 10:50:27,1.075,0.427,2.293,5.554,-8.972,-1.465,4.61,-22.32,-35.71
2020-06-29 10:50:27,1.078,0.310,2.286,0.916,-7.446,-1.465,4.69,-22.42,-35.73
2020-06-29 10:50:27,1.047,0.174,2.232,-3.906,-2.869,-1.038,4.68,-22.48,-35.75
2020-06-29 10:50:27,1.003,-0.018,2.243,-7.385,2.563,-0.305,4.60,-22.48,-35.75
2020-06-29 10:50:27,0.912,-0.083,2.249,-7.385,7.324,0.549,4.48,-22.42,-35.74
2020-06-29 10:50:27,0.823,-0.025,2.328,-4.639,8.789,1.404,4.36,-22.33,-35.72
2020-06-29 10:50:27,0.777,0.063,2.324,-0.427,7.080,1.709,4.30,-22.24,-35.69
2020-06-29 10:50:27,0.828,0.204,2.363,4.517,1.831,1.160,4.31,-22.18,-35.68
2020-06-29 10:50:27,0.938,0.333,2.352,7.446,-4.211,0.000,4.39,-22.19,-35.68
2020-06-29 10:50:27,1.027,0.406,2.347,7.568,-8.301,-1.099,4.50,-22.26,-35.70
2020-06-29 10:50:27,1.064,0.422,2.285,4.761,-8.728,-1.587,4.61,-22.36,-35.72
2020-06-29 10:50:27,1.093,0.273,2.283,-0.305,-6.592,-1.465,4.68,-22.45,-35.74
2020-06-29 10:50:27,1.024,0.148,2.250,-4.883,-1.587,-0.977,4.66,-22.49,-35.76
2020-06-29 10:50:27,0.936,0.056,2.250,-7.385,3.967,0.000,4.57,-22.47,-35.76
2020-06-29 10:50:27,0.870,-0.069,2.285,-7.019,8.179,0.671,4.47,-22.40,-35.74
2020-06-29 10:50:27,0.828,-0.069,2.295,-3.784,8.484,1.526,4.36,-22.30,-35.72
2020-06-29 10:50:27,0.794,0.072,2.335,0.732,5.859,1.648,4.30,-22.21,-35.69
2020-06-29 10:50:27,0.835,0.265,2.373,5.554,0.488,0.977,4.32,-22.18,-35.68
2020-06-29 10:50:27,0.944,0.407,2.357,8.179,-5.310,-0.183,4.43,-22.20,-35.69
2020-06-29 10:50:27,1.056,0.445,2.330,7.019,-8.911,-1.282,4.55,-22.28,-35.71
2020-06-29 10:50:27,1.090,0.383,2.296,3.357,-8.545,-1.465,4.66,-22.38,-35.73
2020-06-29 10:50:27,1.072,0.238,2.261,-1.404,-5.310,-1.282,4.70,-22.46,-35.75
2020-06-29 10:50:27,1.018,0.063,2.230,-5.737,0.000,-0.671,4.66,-22.48,-35.76
2020-06-29 10:50:27,0.929,-0.009,2.270,-7.813,5.066,0.000,4.55,-22.46,-35.76
2020-06-29 10:50:27,0.846,-0.034,2.284,-6.470,8.789,0.916,4.43,-22.37,-35.74
2020-06-29 10:50:27,0.787,0.000,2.339,-2.563,8.362,1.526,4.35,-22.26,-35.71
2020-06-29 10:50:27,0.805,0.112,2.339,1.831,4.700,1.465,4.31,-22.18,-35.69
2020-06-29 10:50:27,0.873,0.251,2.354,6.104,-1.038,0.671,4.36,-22.16,-35.69
2020-06-29 10:50:27,0.967,0.373,2.361,8.301,-6.470,-0.488,4.46,-22.21,-35.69
2020-06-29 10:50:27,1.050,0.439,2.288,6.348,-9.033,-1.343,4.58,-22.29,-35.72
2020-06-29 10:50:27,1.078,0.384,2.309,2.441,-8.240,-1.526,4.67,-22.40,-35.74
2020-06-29 10:50:27,1.087,0.198,2.233,-2.441,-4.272,-1.160,4.70,-22.46,-35.76
2020-06-29 10:50:27,1.016,0.040,2.249,-6.714,1.160,-0.488,4.64,-22.48,-35.77
2020-06-29 10:50:27,0.898,-0.028,2.265,-7.507,6.287,0.305,4.53,-22.43,-35.76
2020-06-29 10:50:27,0.833,-0.054,2.287,-5.676,8.850,1.160,4.41,-22.34,-35.73
2020-06-29 10:50:27,0.794,-0.019,2.323,-1.892,7.751,1.587,4.32,-22.24,-35.71
2020-06-29 10:50:27,0.824,0.146,2.342,3.296,3.235,1.343,4.30,-22.18,-35.69
2020-06-29 10:50:27,0.895,0.319,2.369,7.019,-2.380,0.366,4.36,-22.18,-35.69
2020-06-29 10:50:27,0.895,0.319,2.369,8.118,-7.446,-0.793,4.48,-22.23,-35.71
2020-06-29 10:50:27,1.009,0.409,2.349,8.118,-7.446,-0.793,4.60,-22.29,-35.72
2020-06-29 10:50:27,1.078,0.428,2.291,5.798,-9.033,-1.526,4.72,-22.38,-35.74
2020-06-29 10:50:27,1.076,0.337,2.290,1.038,-7.568,-1.526,4.80,-22.48,-35.77
2020-06-29 10:50:27,1.064,0.167,2.232,-3.601,-2.991,-1.160,4.81,-22.53,-35.78
2020-06-29 10:50:27,1.006,-0.016,2.234,-7.263,2.441,-0.366,4.73,-22.54,-35.79
2020-06-29 10:50:27,0.906,-0.061,2.258,-7.568,7.019,0.488,4.60,-22.48,-35.78
2020-06-29 10:50:27,0.816,-0.019,2.320,-4.517,8.850,1.282,4.48,-22.39,-35.76
2020-06-29 10:50:27,0.779,0.053,2.316,-0.610,7.202,1.709,4.42,-22.29,-35.73
2020-06-29 10:50:27,0.835,0.182,2.373,4.333,2.014,1.221,4.42,-22.24,-35.71
2020-06-29 10:50:27,0.933,0.321,2.347,7.507,-3.723,0.244,4.50,-22.24,-35.72
2020-06-29 10:50:27,1.015,0.408,2.345,7.874,-8.118,-0.854,4.61,-22.31,-35.73
2020-06-29 10:50:27,1.065,0.427,2.292,4.822,-8.728,-1.465,4.72,-22.41,-35.76
2020-06-29 10:50:27,1.087,0.288,2.278,0.000,-6.653,-1.404,4.79,-22.49,-35.78
2020-06-29 10:50:27,1.017,0.177,2.252,-4.639,-1.831,-0.916,4.77,-22.54,-35.79
2020-06-29 10:50:27,0.964,0.025,2.239,-7.507,3.723,0.000,4.70,-22.52,-35.78
2020-06-29 10:50:27,0.904,-0.104,2.278,-7.263,7.935,0.610,4.58,-22.45,-35.77
2020-06-29 10:50:27,0.832,-0.064,2.292,-3.906,8.667,1.465,4.45,-22.36,-35.74
2020-06-29 10:50:27,0.783,0.092,2.349,0.427,6.165,1.648,4.39,-22.27,-35.72
2020-06-29 10:50:27,0.824,0.265,2.371,5.371,0.916,1.038,4.42,-22.23,-35.71
2020-06-29 10:50:27,0.951,0.385,2.351,7.935,-5.066,0.000,4.52,-22.25,-35.72
2020-06-29 10:50:27,1.051,0.416,2.343,6.958,-8.789,-1.160,4.64,-22.32,-35.73
2020-06-29 10:50:27,1.086,0.376,2.273,3.540,-8.606,-1.526,4.74,-22.42,-35.76
2020-06-29 10:50:27,1.077,0.249,2.266,-0.977,-5.737,-1.343,4.78,-22.51,-35.78
2020-06-29 10:50:27,1.016,0.094,2.242,-5.493,-0.549,-0.671,4.75,-22.54,-35.79
2020-06-29 10:50:27,0.932,0.015,2.260,-7.813,4.700,0.000,4.65,-22.51,-35.78
2020-06-29 10:50:27,0.855,-0.037,2.289,-6.531,8.667,0.977,4.53,-22.43,-35.77
2020-06-29 10:50:27,0.799,-0.021,2.322,-2.930,8.423,1.526,4.44,-22.32,-35.74
2020-06-29 10:50:27,0.795,0.095,2.333,1.404,4.944,1.465,4.39,-22.24,-35.72
2020-06-29 10:50:27,0.854,0.247,2.364,6.104,-0.549,0.732,4.43,-22.21,-35.71
2020-06-29 10:50:27,0.958,0.385,2.359,8.362,-6.165,-0.366,4.54,-22.25,-35.72
2020-06-29 10:50:27,1.046,0.449,2.313,6.470,-9.094,-1.343,4.65,-22.34,-35.74
2020-06-29 10:50:27,1.091,0.396,2.305,2.747,-8.301,-1.587,4.75,-22.43,-35.77
2020-06-29 10:50:27,1.088,0.211,2.243,-2.136,-4.700,-1.282,4.79,-22.51,-35.79
2020-06-29 10:50:27,0.992,0.068,2.250,-6.409,0.793,-0.732,4.74,-22.53,-35.79
2020-06-29 10:50:27,0.893,-0.020,2.265,-7.629,5.798,0.183,4.63,-22.48,-35.79
2020-06-29 10:50:27,0.848,-0.076,2.278,-6.042,8.789,1.099,4.51,-22.39,-35.77
2020-06-29 10:50:27,0.805,-0.029,2.327,-2.258,7.874,1.648,4.41,-22.29,-35.74
2020-06-29 10:50:27,0.812,0.149,2.342,2.869,3.784,1.526,4.38,-22.23,-35.72
2020-06-29 10:50:27,0.884,0.305,2.373,6.775,-1.953,0.488,4.44,-22.21,-35.72
2020-06-29 10:50:27,1.002,0.397,2.341,8.118,-7.141,-0.671,4.55,-22.26,-35.73
2020-06-29 10:50:27,1.070,0.417,2.306,5.859,-9.094,-1.465,4.67,-22.36,-35.76
2020-06-29 10:50:27,1.083,0.359,2.283,1.648,-7.751,-1.526,4.75,-22.46,-35.78
2020-06-29 10:50:27,1.077,0.158,2.227,-2.991,-3.418,-1.160,4.77,-22.52,-35.79
2020-06-29 10:50:27,1.000,0.009,2.248,-7.202,2.075,-0.427,4.69,-22.53,-35.80
2020-06-29 10:50:27,0.886,-0.013,2.258,-7.507,6.714,0.549,4.57,-22.47,-35.79
2020-06-29 10:50:27,0.815,-0.029,2.319,-5.127,8.972,1.221,4.46,-22.37,-35.77
2020-06-29 10:50:27,0.800,0.002,2.310,-1.160,7.324,1.709,4.39,-22.27,-35.74
2020-06-29 10:50:27,0.836,0.151,2.354,3.845,2.502,1.282,4.38,-22.22,-35.72
2020-06-29 10:50:27,0.907,0.313,2.360,7.263,-3.296,0.305,4.44,-22.23,-35.72
2020-06-29 10:50:27,1.000,0.419,2.344,8.118,-7.751,-0.793,4.56,-22.29,-35.74
2020-06-29 10:50:27,1.073,0.433,2.298,5.127,-8.850,-1.465,4.67,-22.38,-35.76
2020-06-29 10:50:27,1.096,0.310,2.287,0.366,-7.141,-1.404,4.75,-22.47,-35.78
2020-06-29 10:50:27,1.035,0.176,2.243,-4.089,-2.319,-0.977,4.74,-22.52,-35.80
2020-06-29 10:50:27,0.993,-0.010,2.224,-7.629,3.174,-0.183,4.66,-22.51,-35.79
2020-06-29 10:50:27,0.914,-0.110,2.273,-7.446,7.629,0.610,4.54,-22.46,-35.78
2020-06-29 10:50:27,0.814,-0.030,2.299,-4.150,8.850,1.404,4.41,-22.36,-35.76
2020-06-29 10:50:27,0.773,0.103,2.339,0.000,6.531,1.648,4.35,-22.27,-35.74
2020-06-29 10:50:27,0.834,0.234,2.374,4.944,1.343,0.977,4.38,-22.22,-35.72
2020-06-29 10:50:27,0.944,0.356,2.345,7.751,-4.639,0.000,4.47,-22.24,-35.73
2020-06-29 10:50:27,1.031,0.393,2.350,7.263,-8.606,-1.038,4.59,-22.31,-35.75
2020-06-29 10:50:27,1.075,0.388,2.273,4.150,-8.545,-1.526,4.69,-22.41,-35.77
2020-06-29 10:50:27,1.084,0.286,2.285,-0.549,-6.165,-1.404,4.74,-22.49,-35.79
2020-06-29 10:50:27,1.025,0.137,2.246,-5.066,-1.038,-0.793,4.72,-22.53,-35.80
2020-06-29 10:50:27,0.945,0.028,2.260,-7.813,4.333,0.000,4.63,-22.51,-35.80
2020-06-29 10:50:27,0.865,-0.055,2.296,-6.775,8.423,0.854,4.52,-22.42,-35.78
2020-06-29 10:50:27,0.802,-0.040,2.304,-3.418,8.606,1.587,4.41,-22.32,-35.76
2020-06-29 10:50:27,0.781,0.085,2.341,0.916,5.432,1.526,4.36,-22.24,-35.73
2020-06-29 10:50:27,0.843,0.248,2.360,5.859,0.000,0.854,4.39,-22.20,-35.73
2020-06-29 10:50:27,0.951,0.388,2.361,8.179,-5.798,-0.366,4.49,-22.23,-35.73
2020-06-29 10:50:27,1.046,0.442,2.331,6.653,-9.033,-1.282,4.61,-22.31,-35.76
2020-06-29 10:50:27,1.097,0.391,2.283,3.052,-8.423,-1.587,4.71,-22.41,-35.78
2020-06-29 10:50:27,1.080,0.243,2.261,-1.709,-5.127,-1.221,4.75,-22.49,-35.80
2020-06-29 10:50:27,0.990,0.094,2.243,-5.859,0.488,-0.671,4.71,-22.52,-35.80
2020-06-29 10:50:27,0.915,-0.029,2.253,-7.935,5.371,0.183,4.61,-22.47,-35.80
2020-06-29 10:50:27,0.868,-0.084,2.281,-6.287,8.667,1.038,4.48,-22.38,-35.78
2020-06-29 10:50:28,0.798,-0.010,2.330,-2.380,8.240,1.587,4.38,-22.29,-35.76
2020-06-29 10:50:28,0.796,0.148,2.337,2.197,4.211,1.526,4.36,-22.21,-35.73
2020-06-29 10:50:28,0.876,0.286,2.378,6.531,-1.465,0.610,4.41,-22.20,-35.73
2020-06-29 10:50:28,0.988,0.378,2.344,8.240,-6.836,-0.549,4.52,-22.24,-35.74
2020-06-29 10:50:28,1.062,0.407,2.308,6.165,-9.155,-1.343,4.64,-22.34,-35.77
2020-06-29 10:50:28,1.076,0.371,2.290,2.197,-7.813,-1.526,4.72,-22.43,-35.79
2020-06-29 10:50:28,1.082,0.179,2.231,-2.686,-4.089,-1.160,4.75,-22.49,-35.80
2020-06-29 10:50:28,0.993,0.057,2.254,-6.775,1.526,-0.610,4.68,-22.51,-35.81
2020-06-29 10:50:28,0.885,-0.002,2.266,-7.507,6.531,0.366,4.56,-22.46,-35.80
2020-06-29 10:50:28,0.838,-0.060,2.304,-5.554,8.911,1.099,4.46,-22.36,-35.78
2020-06-29 10:50:28,0.812,-0.021,2.300,-1.709,7.568,1.648,4.37,-22.26,-35.76
2020-06-29 10:50:28,0.823,0.146,2.357,3.479,3.052,1.343,4.35,-22.21,-35.74
2020-06-29 10:50:28,0.887,0.317,2.368,7.324,-2.502,0.366,4.42,-22.20,-35.74
2020-06-29 10:50:28,1.001,0.414,2.336,8.057,-7.507,-0.793,4.53,-22.26,-35.75
2020-06-29 10:50:28,1.080,0.429,2.316,5.432,-9.094,-1.465,4.65,-22.35,-35.78
2020-06-29 10:50:28,1.085,0.344,2.278,1.038,-7.324,-1.465,4.73,-22.45,-35.80
2020-06-29 10:50:28,1.075,0.142,2.229,-3.723,-2.747,-1.160,4.74,-22.50,-35.81
2020-06-29 10:50:28,1.013,-0.022,2.233,-7.507,2.563,-0.427,4.65,-22.51,-35.82
2020-06-29 10:50:28,0.881,-0.040,2.276,-7.263,7.263,0.488,4.52,-22.46,-35.80
2020-06-29 10:50:28,0.799,0.003,2.310,-4.456,8.911,1.221,4.42,-22.36,-35.78
2020-06-29 10:50:28,0.785,0.059,2.330,-0.671,6.958,1.648,4.36,-22.25,-35.76
2020-06-29 10:50:28,0.843,0.185,2.361,4.211,1.831,1.160,4.36,-22.20,-35.74
2020-06-29 10:50:28,0.926,0.321,2.350,7.507,-3.845,0.183,4.44,-22.21,-35.74
2020-06-29 10:50:28,1.007,0.400,2.349,7.507,-8.118,-0.977,4.55,-22.29,-35.76
2020-06-29 10:50:28,1.071,0.423,2.286,4.578,-8.850,-1.526,4.66,-22.38,-35.79
2020-06-29 10:50:28,1.092,0.308,2.294,0.000,-6.714,-1.404,4.72,-22.47,-35.81
2020-06-29 10:50:28,1.038,0.161,2.238,-4.639,-1.953,-0.916,4.71,-22.51,-35.82
2020-06-29 10:50:28,0.970,0.018,2.240,-7.751,3.540,-0.183,4.63,-22.50,-35.82
2020-06-29 10:50:28,0.893,-0.086,2.287,-7.080,7.996,0.732,4.51,-22.43,-35.80
2020-06-29 10:50:28,0.816,-0.048,2.283,-3.784,8.667,1.526,4.40,-22.34,-35.78
2020-06-29 10:50:28,0.779,0.097,2.355,0.244,6.042,1.648,4.33,-22.25,-35.76
2020-06-29 10:50:28,0.839,0.253,2.359,5.371,0.977,1.099,4.37,-22.20,-35.74
2020-06-29 10:50:28,0.939,0.379,2.362,7.996,-4.883,0.000,4.47,-22.23,-35.75
2020-06-29 10:50:28,1.033,0.409,2.338,6.836,-8.728,-1.038,4.59,-22.30,-35.77
2020-06-29 10:50:28,1.091,0.375,2.277,3.601,-8.545,-1.526,4.68,-22.40,-35.79
2020-06-29 10:50:28,1.071,0.274,2.283,-1.038,-5.737,-1.282,4.72,-22.48,-35.81
2020-06-29 10:50:28,1.015,0.109,2.234,-5.249,-0.610,-0.671,4.70,-22.51,-35.82
2020-06-29 10:50:28,0.952,-0.018,2.257,-7.935,4.578,0.000,4.60,-22.48,-35.82
2020-06-29 10:50:28,0.877,-0.063,2.296,-6.470,8.606,1.038,4.48,-22.40,-35.79
2020-06-29 10:50:28,0.795,-0.009,2.316,-2.991,8.667,1.587,4.38,-22.30,-35.77
2020-06-29 10:50:28,0.781,0.119,2.349,1.465,4.944,1.526,4.34,-22.23,-35.75
2020-06-29 10:50:28,0.858,0.255,2.361,6.104,-0.427,0.732,4.38,-22.19,-35.74
2020-06-29 10:50:28,0.963,0.363,2.354,8.118,-6.165,-0.366,4.48,-22.23,-35.75
2020-06-29 10:50:28,1.036,0.416,2.326,6.409,-9.033,-1.282,4.60,-22.31,-35.77
2020-06-29 10:50:28,1.086,0.384,2.291,2.747,-8.179,-1.587,4.69,-22.41,-35.80
2020-06-29 10:50:28,1.074,0.231,2.256,-2.014,-4.639,-1.221,4.72,-22.48,-35.82
2020-06-29 10:50:28,0.988,0.104,2.251,-6.165,0.854,-0.671,4.67,-22.50,-35.82
2020-06-29 10:50:28,0.914,-0.026,2.260,-7.813,5.676,0.183,4.58,-22.45,-35.82
2020-06-29 10:50:28,0.873,-0.098,2.282,-6.042,8.850,1.038,4.45,-22.36,-35.79
2020-06-29 10:50:28,0.798,-0.016,2.321,-2.136,7.996,1.587,4.36,-22.27,-35.77
2020-06-29 10:50:28,0.794,0.173,2.352,2.747,3.784,1.404,4.33,-22.20,-35.76
2020-06-29 10:50:28,0.875,0.315,2.374,6.897,-1.831,0.488,4.39,-22.18,-35.75
2020-06-29 10:50:28,1.002,0.391,2.338,7.996,-7.263,-0.610,4.51,-22.23,-35.76
2020-06-29 10:50:28,1.070,0.411,2.323,5.737,-9.216,-1.465,4.63,-22.33,-35.78
2020-06-29 10:50:28,1.081,0.350,2.271,1.648,-7.690,-1.587,4.71,-22.42,-35.81
2020-06-29 10:50:28,1.080,0.162,2.237,-3.052,-3.662,-1.221,4.72,-22.49,-35.83
2020-06-29 10:50:28,0.983,0.052,2.260,-7.080,1.953,-0.488,4.65,-22.50,-35.83
2020-06-29 10:50:28,0.869,0.007,2.266,-7.446,6.714,0.427,4.54,-22.45,-35.82
2020-06-29 10:50:28,0.825,-0.053,2.312,-5.249,8.911,1.160,4.43,-22.34,-35.80
2020-06-29 10:50:28,0.810,-0.016,2.303,-1.465,7.263,1.709,4.35,-22.25,-35.77
2020-06-29 10:50:28,0.827,0.153,2.348,3.662,2.441,1.343,4.33,-22.19,-35.76
2020-06-29 10:50:28,0.892,0.329,2.368,7.568,-3.052,0.366,4.41,-22.20,-35.76
2020-06-29 10:50:28,1.004,0.418,2.343,7.874,-7.874,-0.793,4.52,-22.26,-35.77
2020-06-29 10:50:28,1.083,0.429,2.311,5.066,-9.155,-1.404,4.64,-22.35,-35.79
2020-06-29 10:50:28,1.092,0.322,2.279,0.671,-7.080,-1.404,4.71,-22.45,-35.82
2020-06-29 10:50:28,1.056,0.159,2.229,-3.906,-2.441,-0.977,4.71,-22.49,-35.83
2020-06-29 10:50:28,1.004,-0.016,2.229,-7.568,3.052,-0.183,4.63,-22.49,-35.83
2020-06-29 10:50:28,0.894,-0.067,2.282,-7.202,7.751,0.610,4.50,-22.43,-35.82
2020-06-29 10:50:28,0.806,-0.010,2.302,-4.211,8.972,1.465,4.39,-22.34,-35.79
2020-06-29 10:50:28,0.787,0.088,2.342,-0.244,6.592,1.648,4.33,-22.24,-35.77
2020-06-29 10:50:28,0.842,0.217,2.365,4.700,1.526,1.099,4.35,-22.19,-35.76
2020-06-29 10:50:28,0.933,0.340,2.356,7.629,-4.456,0.000,4.44,-22.21,-35.76
2020-06-29 10:50:28,1.018,0.391,2.347,7.263,-8.423,-1.038,4.55,-22.29,-35.78
2020-06-29 10:50:28,1.070,0.396,2.285,4.211,-8.606,-1.465,4.65,-22.37,-35.80
2020-06-29 10:50:28,1.081,0.301,2.293,-0.427,-6.226,-1.404,4.71,-22.46,-35.82
2020-06-29 10:50:28,1.039,0.132,2.223,-4.822,-1.282,-0.854,4.69,-22.50,-35.83
2020-06-29 10:50:28,0.970,0.007,2.258,-7.751,4.028,0.000,4.60,-22.48,-35.83
2020-06-29 10:50:28,0.866,-0.056,2.300,-6.775,8.545,0.854,4.48,-22.41,-35.81
2020-06-29 10:50:28,0.789,-0.034,2.290,-3.540,8.728,1.526,4.38,-22.30,-35.79
2020-06-29 10:50:28,0.783,0.089,2.355,0.732,5.371,1.587,4.33,-22.22,-35.77
2020-06-29 10:50:28,0.853,0.241,2.354,5.737,0.183,0.916,4.36,-22.18,-35.76
2020-06-29 10:50:28,0.947,0.379,2.368,8.179,-5.676,-0.244,4.46,-22.21,-35.76
2020-06-29 10:50:28,1.034,0.425,2.342,6.775,-8.850,-1.160,4.58,-22.29,-35.78
2020-06-29 10:50:28,1.094,0.381,2.280,3.479,-8.423,-1.465,4.68,-22.38,-35.80
2020-06-29 10:50:28,1.070,0.269,2.268,-1.404,-5.188,-1.221,4.72,-22.47,-35.82
2020-06-29 10:50:28,1.010,0.096,2.230,-5.554,0.000,-0.610,4.69,-22.49,-35.83
2020-06-29 10:50:28,0.949,-0.042,2.252,-7.935,5.066,0.183,4.59,-22.46,-35.82
2020-06-29 10:50:28,0.870,-0.072,2.287,-6.348,8.789,1.099,4.45,-22.38,-35.80
2020-06-29 10:50:28,0.779,0.008,2.333,-2.502,8.423,1.587,4.36,-22.28,-35.78
2020-06-29 10:50:28,0.788,0.152,2.345,1.953,4.395,1.526,4.33,-22.20,-35.76
2020-06-29 10:50:28,0.881,0.269,2.370,6.348,-1.282,0.610,4.38,-22.18,-35.76
2020-06-29 10:50:28,0.978,0.370,2.352,8.240,-6.714,-0.488,4.49,-22.23,-35.77
2020-06-29 10:50:28,1.041,0.408,2.316,6.226,-9.094,-1.343,4.61,-22.31,-35.79
2020-06-29 10:50:28,1.083,0.367,2.284,2.319,-7.996,-1.526,4.69,-22.41,-35.81
2020-06-29 10:50:28,1.069,0.230,2.255,-2.502,-4.333,-1.221,4.72,-22.48,-35.83
2020-06-29 10:50:28,0.977,0.108,2.257,-6.409,1.343,-0.671,4.67,-22.49,-35.83
2020-06-29 10:50:28,0.904,-0.020,2.258,-7.690,6.104,0.244,4.57,-22.44,-35.83
2020-06-29 10:50:28,0.863,-0.101,2.289,-6.042,8.850,1.038,4.45,-22.35,-35.80
2020-06-29 10:50:29,0.803,-0.025,2.308,-1.831,7.874,1.526,4.36,-22.25,-35.78
2020-06-29 10:50:29,0.792,0.170,2.355,3.113,3.418,1.343,4.33,-22.19,-35.77
2020-06-29 10:50:29,0.881,0.329,2.379,7.141,-2.258,0.427,4.40,-22.18,-35.76
2020-06-29 10:50:29,1.006,0.410,2.334,8.057,-7.507,-0.610,4.52,-22.23,-35.78
2020-06-29 10:50:29,1.072,0.404,2.332,5.554,-9.216,-1.343,4.64,-22.32,-35.80
2020-06-29 10:50:29,1.088,0.327,2.269,1.404,-7.446,-1.404,4.71,-22.42,-35.82
2020-06-29 10:50:29,1.079,0.150,2.228,-3.296,-3.235,-1.099,4.72,-22.48,-35.83
2020-06-29 10:50:29,0.991,0.031,2.249,-7.141,2.258,-0.366,4.64,-22.49,-35.84
2020-06-29 10:50:29,0.872,-0.002,2.272,-7.141,7.324,0.488,4.53,-22.43,-35.83
2020-06-29 10:50:29,0.817,-0.022,2.314,-5.066,9.033,1.282,4.42,-22.33,-35.80
2020-06-29 10:50:29,0.811,0.009,2.303,-1.404,7.080,1.648,4.35,-22.23,-35.78
2020-06-29 10:50:29,0.834,0.164,2.359,3.967,2.258,1.160,4.34,-22.18,-35.77
2020-06-29 10:50:29,0.905,0.324,2.357,7.568,-3.479,0.244,4.41,-22.19,-35.77
2020-06-29 10:50:29,1.006,0.414,2.346,7.629,-7.996,-0.916,4.53,-22.25,-35.78
2020-06-29 10:50:29,1.069,0.432,2.317,5.005,-8.972,-1.343,4.64,-22.35,-35.80
2020-06-29 10:50:29,1.095,0.308,2.284,0.244,-6.897,-1.343,4.71,-22.43,-35.83
2020-06-29 10:50:29,1.054,0.155,2.226,-4.333,-2.136,-0.916,4.70,-22.48,-35.84
2020-06-29 10:50:29,0.983,0.004,2.242,-7.751,3.357,0.000,4.61,-22.48,-35.83
2020-06-29 10:50:29,0.883,-0.069,2.273,-7.080,7.996,0.671,4.49,-22.41,-35.82
2020-06-29 10:50:29,0.809,-0.030,2.298,-4.089,9.033,1.465,4.38,-22.31,-35.79
2020-06-29 10:50:29,0.788,0.084,2.342,0.000,6.165,1.587,4.32,-22.23,-35.77
2020-06-29 10:50:29,0.842,0.237,2.357,5.188,0.977,0.916,4.35,-22.18,-35.76
2020-06-29 10:50:29,0.932,0.366,2.364,7.996,-4.883,0.000,4.44,-22.20,-35.77
2020-06-29 10:50:29,1.031,0.395,2.345,7.324,-8.728,-1.099,4.56,-22.27,-35.79
2020-06-29 10:50:29,1.077,0.384,2.286,4.150,-8.667,-1.465,4.66,-22.37,-35.81
2020-06-29 10:50:29,1.079,0.293,2.289,-0.610,-6.042,-1.282,4.71,-22.46,-35.83
2020-06-29 10:50:29,1.038,0.116,2.217,-5.005,-0.916,-0.793,4.70,-22.49,-35.84
2020-06-29 10:50:29,0.965,0.006,2.269,-7.813,4.333,0.000,4.60,-22.47,-35.83
2020-06-29 10:50:29,0.857,-0.036,2.293,-6.775,8.728,0.916,4.48,-22.40,-35.82
2020-06-29 10:50:29,0.784,-0.018,2.307,-3.479,8.667,1.526,4.38,-22.29,-35.79
2020-06-29 10:50:29,0.789,0.088,2.337,0.916,5.188,1.465,4.33,-22.21,-35.77
2020-06-29 10:50:29,0.863,0.235,2.353,5.737,0.000,0.732,4.37,-22.17,-35.77
2020-06-29 10:50:29,0.943,0.376,2.370,8.179,-5.920,-0.427,4.47,-22.21,-35.77
2020-06-29 10:50:29,1.029,0.430,2.331,6.775,-8.972,-1.282,4.59,-22.29,-35.79
2020-06-29 10:50:29,1.090,0.381,2.297,3.296,-8.484,-1.526,4.69,-22.38,-35.82
2020-06-29 10:50:29,1.075,0.274,2.266,-1.648,-5.127,-1.221,4.72,-22.46,-35.84
2020-06-29 10:50:29,1.017,0.089,2.228,-5.737,0.366,-0.671,4.69,-22.48,-35.84
2020-06-29 10:50:29,0.958,-0.046,2.256,-7.996,5.371,0.000,4.59,-22.45,-35.84
2020-06-29 10:50:29,0.857,-0.068,2.288,-6.409,8.972,0.977,4.46,-22.37,-35.82
2020-06-29 10:50:29,0.770,0.014,2.330,-2.319,8.423,1.465,4.37,-22.27,-35.80
2020-06-29 10:50:29,0.790,0.156,2.341,1.892,4.150,1.404,4.34,-22.19,-35.78
2020-06-29 10:50:29,0.886,0.276,2.370,6.409,-1.526,0.488,4.39,-22.16,-35.78
2020-06-29 10:50:29,0.983,0.375,2.354,8.240,-6.897,-0.549,4.50,-22.21,-35.79
2020-06-29 10:50:29,1.043,0.404,2.319,6.226,-9.155,-1.343,4.62,-22.31,-35.81
2020-06-29 10:50:29,1.079,0.358,2.282,2.258,-7.935,-1.465,4.70,-22.40,-35.83
2020-06-29 10:50:29,1.059,0.231,2.253,-2.380,-4.150,-1.099,4.72,-22.47,-35.85
2020-06-29 10:50:29,0.971,0.106,2.259,-6.531,1.404,-0.488,4.67,-22.48,-35.85
2020-06-29 10:50:29,0.907,-0.018,2.248,-7.568,6.287,0.366,4.58,-22.42,-35.84
2020-06-29 10:50:29,0.862,-0.096,2.301,-5.981,8.789,1.160,4.46,-22.34,-35.82
2020-06-29 10:50:29,0.807,-0.030,2.300,-1.831,7.751,1.587,4.36,-22.24,-35.80
2020-06-29 10:50:29,0.795,0.174,2.358,3.174,3.357,1.343,4.34,-22.18,-35.78
2020-06-29 10:50:29,0.882,0.333,2.373,7.141,-2.502,0.366,4.41,-22.17,-35.78
2020-06-29 10:50:29,1.007,0.415,2.340,7.996,-7.568,-0.732,4.53,-22.23,-35.79
2020-06-29 10:50:29,1.066,0.396,2.331,5.432,-9.216,-1.404,4.64,-22.32,-35.82
2020-06-29 10:50:29,1.090,0.310,2.268,1.099,-7.507,-1.343,4.71,-22.41,-35.84
2020-06-29 10:50:29,1.068,0.156,2.235,-3.479,-3.113,-1.099,4.71,-22.47,-35.85
2020-06-29 10:50:29,0.991,0.031,2.248,-7.263,2.319,-0.366,4.64,-22.48,-35.85
2020-06-29 10:50:29,0.882,-0.018,2.262,-7.324,7.324,0.488,4.52,-22.42,-35.84
2020-06-29 10:50:29,0.821,-0.022,2.318,-5.005,8.911,1.221,4.41,-22.32,-35.82
2020-06-29 10:50:29,0.807,0.010,2.305,-1.282,7.019,1.587,4.34,-22.23,-35.80
2020-06-29 10:50:29,0.833,0.167,2.354,4.028,2.075,1.099,4.33,-22.18,-35.78
2020-06-29 10:50:29,0.910,0.329,2.356,7.507,-3.723,0.183,4.41,-22.19,-35.79
2020-06-29 10:50:29,1.009,0.413,2.341,7.751,-8.179,-0.916,4.53,-22.26,-35.80
2020-06-29 10:50:29,1.066,0.423,2.316,5.066,-9.033,-1.404,4.64,-22.35,-35.83
2020-06-29 10:50:29,1.098,0.304,2.280,0.305,-6.897,-1.282,4.71,-22.44,-35.84
2020-06-29 10:50:29,1.053,0.150,2.232,-4.272,-2.075,-0.854,4.70,-22.49,-35.85
2020-06-29 10:50:29,0.975,0.024,2.250,-7.385,3.418,0.000,4.61,-22.48,-35.85
2020-06-29 10:50:29,0.875,-0.061,2.273,-7.263,8.118,0.732,4.50,-22.41,-35.84
2020-06-29 10:50:29,0.807,-0.040,2.298,-4.150,8.911,1.465,4.39,-22.31,-35.82
2020-06-29 10:50:29,0.790,0.067,2.341,0.000,6.226,1.526,4.32,-22.22,-35.79
2020-06-29 10:50:29,0.838,0.238,2.360,5.005,1.038,0.916,4.35,-22.18,-35.78
2020-06-29 10:50:29,0.926,0.373,2.375,7.996,-4.761,0.000,4.44,-22.20,-35.79
2020-06-29 10:50:29,1.028,0.413,2.337,7.385,-8.789,-1.099,4.56,-22.27,-35.80
2020-06-29 10:50:29,1.080,0.383,2.305,4.150,-8.789,-1.465,4.67,-22.37,-35.83
2020-06-29 10:50:29,1.082,0.283,2.277,-0.488,-5.920,-1.282,4.72,-22.45,-35.85
2020-06-29 10:50:29,1.037,0.110,2.229,-5.005,-1.038,-0.793,4.70,-22.49,-35.86
2020-06-29 10:50:29,0.959,0.023,2.269,-7.690,4.395,-0.183,4.60,-22.47,-35.85
2020-06-29 10:50:29,0.844,-0.024,2.285,-6.775,8.728,0.793,4.49,-22.38,-35.84
2020-06-29 10:50:29,0.787,-0.021,2.313,-3.357,8.667,1.343,4.39,-22.28,-35.82
2020-06-29 10:50:29,0.804,0.075,2.332,0.610,5.249,1.404,4.35,-22.20,-35.80
2020-06-29 10:50:29,0.862,0.237,2.350,5.676,0.000,0.671,4.37,-22.16,-35.79
2020-06-29 10:50:29,0.939,0.390,2.382,8.362,-5.920,-0.366,4.47,-22.20,-35.80
2020-06-29 10:50:29,1.031,0.436,2.314,6.775,-9.033,-1.221,4.60,-22.28,-35.82
2020-06-29 10:50:29,1.092,0.373,2.311,3.113,-8.484,-1.526,4.70,-22.37,-35.84
2020-06-29 10:50:29,1.073,0.285,2.267,-1.526,-5.188,-1.160,4.73,-22.45,-35.86
2020-06-29 10:50:29,1.022,0.078,2.229,-5.737,0.000,-0.671,4.70,-22.48,-35.87
2020-06-29 10:50:29,0.963,-0.051,2.258,-7.935,5.249,0.000,4.59,-22.45,-35.86
2020-06-29 10:50:29,0.853,-0.055,2.293,-6.409,8.972,1.038,4.47,-22.37,-35.84
2020-06-29 10:50:29,0.770,0.011,2.326,-2.502,8.484,1.526,4.37,-22.26,-35.82
2020-06-29 10:50:29,0.790,0.142,2.346,1.953,4.456,1.465,4.35,-22.18,-35.80
2020-06-29 10:50:29,0.884,0.259,2.365,6.165,-1.343,0.610,4.39,-22.16,-35.79
2020-06-29 10:50:29,0.981,0.370,2.354,8.240,-6.775,-0.488,4.50,-22.21,-35.80
2020-06-29 10:50:29,1.035,0.408,2.319,6.348,-8.972,-1.282,4.61,-22.30,-35.83
2020-06-29 10:50:29,1.079,0.357,2.294,2.319,-8.057,-1.404,4.70,-22.39,-35.85
2020-06-29 10:50:29,1.051,0.250,2.253,-2.258,-4.150,-1.038,4.72,-22.46,-35.86
2020-06-29 10:50:29,0.978,0.104,2.257,-6.470,1.221,-0.488,4.67,-22.47,-35.87
2020-06-29 10:50:29,0.932,-0.041,2.242,-7.813,6.104,0.305,4.58,-22.42,-35.86
2020-06-29 10:50:29,0.871,-0.105,2.297,-6.104,8.850,1.038,4.45,-22.34,-35.84
2020-06-29 10:50:29,0.799,-0.020,2.309,-1.953,7.813,1.526,4.35,-22.24,-35.82
2020-06-29 10:50:30,0.787,0.180,2.363,3.052,3.479,1.282,4.33,-22.18,-35.80
2020-06-29 10:50:30,0.889,0.324,2.370,6.897,-2.380,0.366,4.39,-22.16,-35.80
2020-06-29 10:50:30,1.012,0.406,2.350,8.118,-7.507,-0.732,4.52,-22.22,-35.82
2020-06-29 10:50:30,1.063,0.388,2.325,5.493,-9.216,-1.343,4.63,-22.31,-35.84
2020-06-29 10:50:30,1.087,0.316,2.263,1.404,-7.507,-1.343,4.70,-22.41,-35.86
2020-06-29 10:50:30,1.060,0.166,2.253,-3.357,-3.174,-1.038,4.71,-22.47,-35.87
2020-06-29 10:50:30,0.985,0.052,2.247,-7.019,2.197,-0.366,4.63,-22.47,-35.88
2020-06-29 10:50:30,0.880,-0.007,2.264,-7.263,7.263,0.427,4.53,-22.41,-35.86
2020-06-29 10:50:30,0.831,-0.043,2.323,-5.066,8.850,1.221,4.42,-22.32,-35.84
2020-06-29 10:50:30,0.810,-0.004,2.292,-1.221,7.202,1.526,4.35,-22.22,-35.82
2020-06-29 10:50:30,0.820,0.164,2.362,3.967,2.258,1.160,4.33,-22.17,-35.80
2020-06-29 10:50:30,0.908,0.332,2.354,7.568,-3.540,0.244,4.41,-22.18,-35.80
2020-06-29 10:50:30,1.009,0.427,2.345,7.935,-8.118,-0.854,4.53,-22.24,-35.82
2020-06-29 10:50:30,1.068,0.421,2.328,5.127,-9.094,-1.404,4.64,-22.34,-35.84
2020-06-29 10:50:30,1.099,0.303,2.273,0.549,-6.897,-1.282,4.71,-22.42,-35.86
2020-06-29 10:50:30,1.046,0.154,2.243,-4.272,-2.319,-0.977,4.70,-22.48,-35.88
2020-06-29 10:50:30,0.978,0.030,2.242,-7.263,3.174,-0.244,4.63,-22.47,-35.88
2020-06-29 10:50:30,0.875,-0.054,2.274,-7.324,8.057,0.549,4.50,-22.40,-35.86
2020-06-29 10:50:30,0.820,-0.043,2.301,-4.456,8.667,1.343,4.39,-22.31,-35.84
2020-06-29 10:50:30,0.801,0.067,2.333,-0.427,6.409,1.526,4.33,-22.21,-35.82
2020-06-29 10:50:30,0.835,0.231,2.359,4.639,1.343,0.916,4.35,-22.17,-35.81
2020-06-29 10:50:30,0.931,0.366,2.363,7.813,-4.517,0.000,4.43,-22.19,-35.82
2020-06-29 10:50:30,1.026,0.411,2.338,7.141,-8.484,-1.038,4.55,-22.26,-35.83
2020-06-29 10:50:30,1.074,0.389,2.312,4.211,-8.789,-1.465,4.66,-22.36,-35.85
2020-06-29 10:50:30,1.078,0.281,2.272,-0.305,-6.042,-1.282,4.71,-22.44,-35.88
2020-06-29 10:50:30,1.034,0.120,2.236,-5.005,-1.343,-0.793,4.69,-22.48,-35.88
2020-06-29 10:50:30,0.955,0.041,2.264,-7.568,4.211,0.000,4.60,-22.46,-35.88
2020-06-29 10:50:30,0.848,-0.029,2.282,-6.714,8.606,0.732,4.49,-22.38,-35.86
2020-06-29 10:50:30,0.805,-0.036,2.309,-3.601,8.545,1.404,4.39,-22.28,-35.84
2020-06-29 10:50:30,0.810,0.065,2.332,0.427,5.615,1.526,4.34,-22.19,-35.82
2020-06-29 10:50:30,0.850,0.241,2.349,5.493,0.244,0.916,4.36,-22.16,-35.81
2020-06-29 10:50:30,0.934,0.401,2.379,8.240,-5.371,-0.183,4.46,-22.19,-35.82
2020-06-29 10:50:30,1.031,0.435,2.319,6.775,-8.606,-1.099,4.59,-22.26,-35.84
2020-06-29 10:50:30,1.092,0.371,2.313,3.418,-8.484,-1.404,4.69,-22.36,-35.86
2020-06-29 10:50:30,1.076,0.276,2.269,-1.404,-5.249,-1.099,4.72,-22.44,-35.88
2020-06-29 10:50:30,1.035,0.062,2.225,-5.554,-0.183,-0.610,4.70,-22.47,-35.88
2020-06-29 10:50:30,0.959,-0.034,2.259,-7.813,5.066,0.000,4.59,-22.44,-35.88
2020-06-29 10:50:30,0.836,-0.029,2.292,-6.592,8.850,0.977,4.45,-22.36,-35.86
2020-06-29 10:50:30,0.768,0.011,2.324,-2.808,8.423,1.465,4.37,-22.25,-35.84
2020-06-29 10:50:30,0.800,0.114,2.338,1.465,4.456,1.465,4.33,-22.17,-35.82
2020-06-29 10:50:30,0.884,0.248,2.362,5.981,-1.099,0.549,4.38,-22.15,-35.81
2020-06-29 10:50:30,0.965,0.369,2.358,8.301,-6.531,-0.549,4.48,-22.20,-35.82
2020-06-29 10:50:30,1.033,0.418,2.315,6.531,-9.155,-1.282,4.60,-22.29,-35.84
2020-06-29 10:50:30,1.082,0.368,2.304,2.686,-8.179,-1.404,4.69,-22.38,-35.86
2020-06-29 10:50:30,1.054,0.263,2.259,-2.197,-4.456,-1.038,4.72,-22.45,-35.88
2020-06-29 10:50:30,1.000,0.088,2.245,-6.104,0.977,-0.610,4.67,-22.46,-35.89
2020-06-29 10:50:30,0.949,-0.060,2.242,-7.751,5.981,0.244,4.57,-22.42,-35.88
2020-06-29 10:50:30,0.868,-0.095,2.292,-6.042,8.972,1.038,4.44,-22.34,-35.86
2020-06-29 10:50:30,0.776,0.004,2.321,-1.892,8.118,1.587,4.35,-22.24,-35.84
2020-06-29 10:50:31,0.789,0.181,2.354,2.808,3.479,1.404,4.33,-22.17,-35.82
2020-06-29 10:50:31,0.894,0.314,2.372,6.897,-2.197,0.427,4.39,-22.15,-35.82
2020-06-29 10:50:31,1.002,0.387,2.350,8.118,-7.446,-0.671,4.51,-22.21,-35.83
2020-06-29 10:50:31,1.059,0.392,2.323,5.798,-9.277,-1.343,4.63,-22.31,-35.85
2020-06-29 10:50:31,1.076,0.333,2.268,1.648,-7.629,-1.343,4.70,-22.40,-35.87
2020-06-29 10:50:31,1.053,0.194,2.260,-2.991,-3.601,-1.099,4.71,-22.46,-35.89
2020-06-29 10:50:31,0.985,0.072,2.243,-6.958,2.014,-0.488,4.65,-22.47,-35.89
2020-06-29 10:50:31,0.898,-0.012,2.260,-7.629,7.080,0.305,4.54,-22.41,-35.88
2020-06-29 10:50:31,0.845,-0.062,2.315,-5.432,8.911,1.099,4.43,-22.31,-35.86
2020-06-29 10:50:31,0.806,-0.013,2.291,-1.587,7.568,1.526,4.35,-22.22,-35.84
2020-06-29 10:50:31,0.814,0.161,2.361,3.601,2.686,1.160,4.33,-22.16,-35.83
2020-06-29 10:50:31,0.903,0.335,2.355,7.385,-3.174,0.244,4.40,-22.16,-35.83
2020-06-29 10:50:31,1.011,0.428,2.347,7.935,-7.935,-0.854,4.52,-22.23,-35.84
2020-06-29 10:50:31,1.072,0.419,2.330,5.432,-9.033,-1.404,4.64,-22.32,-35.86
2020-06-29 10:50:31,1.094,0.290,2.264,0.671,-7.080,-1.282,4.71,-22.41,-35.88
2020-06-29 10:50:31,1.045,0.161,2.256,-3.967,-2.686,-0.854,4.70,-22.47,-35.90
2020-06-29 10:50:31,1.045,0.161,2.256,-7.080,3.113,-0.183,4.63,-22.46,-35.89
2020-06-29 10:50:31,0.977,0.039,2.232,-7.080,3.113,-0.183,4.55,-22.46,-35.89
2020-06-29 10:50:31,0.889,-0.058,2.271,-7.263,7.813,0.549,4.44,-22.39,-35.88
2020-06-29 10:50:31,0.832,-0.049,2.303,-4.517,8.850,1.404,4.32,-22.29,-35.86
2020-06-29 10:50:31,0.799,0.054,2.325,-0.488,6.714,1.587,4.26,-22.20,-35.84
2020-06-29 10:50:31,0.825,0.216,2.364,4.639,1.770,1.099,4.27,-22.15,-35.82
2020-06-29 10:50:31,0.923,0.350,2.356,7.751,-4.272,0.000,4.36,-22.16,-35.83
2020-06-29 10:50:31,1.027,0.410,2.341,7.446,-8.545,-0.977,4.48,-22.24,-35.84
2020-06-29 10:50:31,1.070,0.396,2.310,4.517,-8.850,-1.343,4.58,-22.34,-35.86
2020-06-29 10:50:31,1.079,0.272,2.269,0.000,-6.409,-1.221,4.64,-22.42,-35.89
2020-06-29 10:50:31,1.033,0.141,2.248,-4.822,-1.709,-0.793,4.62,-22.47,-35.89
2020-06-29 10:50:31,0.954,0.047,2.255,-7.629,4.028,0.000,4.53,-22.45,-35.89
2020-06-29 10:50:31,0.857,-0.045,2.279,-6.958,8.423,0.671,4.43,-22.37,-35.88
2020-06-29 10:50:31,0.812,-0.057,2.301,-3.967,8.728,1.404,4.32,-22.27,-35.85
2020-06-29 10:50:31,0.807,0.054,2.333,0.000,5.737,1.465,4.26,-22.19,-35.83
2020-06-29 10:50:31,0.834,0.246,2.356,5.432,0.488,0.793,4.28,-22.15,-35.83
2020-06-29 10:50:31,0.934,0.396,2.378,8.240,-5.432,-0.305,4.38,-22.18,-35.83
2020-06-29 10:50:31,1.044,0.433,2.321,7.141,-9.033,-1.160,4.51,-22.25,-35.85
2020-06-29 10:50:31,1.086,0.377,2.313,3.784,-8.728,-1.404,4.61,-22.36,-35.88
2020-06-29 10:50:31,1.082,0.261,2.261,-0.854,-5.615,-1.099,4.66,-22.43,-35.89
2020-06-29 10:50:31,1.038,0.075,2.225,-5.371,-0.488,-0.671,4.63,-22.47,-35.90
2020-06-29 10:50:31,0.945,0.008,2.269,-7.751,4.944,0.000,4.52,-22.45,-35.89
2020-06-29 10:50:31,0.830,-0.005,2.291,-6.409,8.972,0.854,4.41,-22.36,-35.88
2020-06-29 10:50:31,0.780,-0.010,2.321,-2.930,8.545,1.404,4.33,-22.25,-35.85
2020-06-29 10:50:31,0.815,0.083,2.326,1.160,4.700,1.465,4.28,-22.17,-35.84
2020-06-29 10:50:31,0.868,0.244,2.358,5.920,-0.671,0.671,4.32,-22.15,-35.83
2020-06-29 10:50:31,0.952,0.387,2.366,8.362,-6.287,-0.427,4.42,-22.19,-35.84
2020-06-29 10:50:31,1.035,0.439,2.313,6.714,-9.155,-1.221,4.54,-22.27,-35.86
2020-06-29 10:50:31,1.080,0.380,2.315,2.869,-8.362,-1.404,4.64,-22.37,-35.88
2020-06-29 10:50:31,1.061,0.270,2.252,-1.953,-4.822,-1.038,4.67,-22.44,-35.90
2020-06-29 10:50:31,1.018,0.068,2.240,-5.981,0.610,-0.671,4.64,-22.46,-35.90
2020-06-29 10:50:31,0.954,-0.065,2.249,-7.996,5.859,0.000,4.53,-22.42,-35.90
2020-06-29 10:50:31,0.854,-0.067,2.289,-6.409,9.033,0.916,4.40,-22.34,-35.88
2020-06-29 10:50:31,0.763,0.014,2.328,-2.319,8.423,1.404,4.31,-22.24,-35.86
2020-06-29 10:50:31,0.789,0.157,2.347,2.258,3.967,1.282,4.28,-22.16,-35.84
2020-06-29 10:50:31,0.891,0.281,2.366,6.409,-1.770,0.427,4.34,-22.14,-35.84
2020-06-29 10:50:31,0.993,0.372,2.353,7.996,-7.080,-0.549,4.45,-22.19,-35.85
2020-06-29 10:50:31,1.052,0.399,2.312,6.104,-9.277,-1.221,4.56,-22.29,-35.87
2020-06-29 10:50:31,1.075,0.352,2.284,2.136,-7.874,-1.343,4.64,-22.38,-35.89
2020-06-29 10:50:31,1.049,0.223,2.270,-2.686,-3.906,-0.916,4.66,-22.45,-35.91
2020-06-29 10:50:31,0.990,0.085,2.247,-6.531,1.709,-0.366,4.61,-22.45,-35.91
2020-06-29 10:50:31,0.916,-0.032,2.253,-7.690,6.653,0.366,4.50,-22.40,-35.90
2020-06-29 10:50:31,0.857,-0.092,2.302,-5.798,8.972,1.099,4.38,-22.31,-35.88
2020-06-29 10:50:31,0.795,-0.021,2.299,-1.648,7.935,1.587,4.30,-22.21,-35.85
2020-06-29 10:50:31,0.796,0.166,2.355,3.235,3.052,1.221,4.27,-22.15,-35.84
2020-06-29 10:50:31,0.899,0.334,2.361,7.263,-2.869,0.305,4.34,-22.15,-35.84
2020-06-29 10:50:31,1.012,0.423,2.354,8.057,-7.813,-0.793,4.47,-22.21,-35.85
2020-06-29 10:50:31,1.076,0.405,2.313,5.493,-9.338,-1.282,4.58,-22.31,-35.88
2020-06-29 10:50:31,1.086,0.309,2.272,1.099,-7.507,-1.221,4.65,-22.40,-35.90
2020-06-29 10:50:31,1.045,0.179,2.258,-3.601,-3.052,-0.793,4.65,-22.46,-35.91
2020-06-29 10:50:31,0.997,0.028,2.218,-7.202,2.563,-0.244,4.58,-22.46,-35.91
2020-06-29 10:50:31,0.900,-0.046,2.275,-7.568,7.446,0.427,4.47,-22.40,-35.90
2020-06-29 10:50:31,0.827,-0.038,2.309,-5.005,9.033,1.160,4.35,-22.31,-35.88
2020-06-29 10:50:31,0.793,0.028,2.312,-0.977,7.263,1.465,4.28,-22.21,-35.85
2020-06-29 10:50:31,0.817,0.180,2.368,4.028,2.197,0.977,4.28,-22.15,-35.84
2020-06-29 10:50:31,0.921,0.328,2.350,7.507,-3.906,0.000,4.36,-22.16,-35.84
2020-06-29 10:50:31,1.022,0.413,2.350,7.874,-8.362,-0.977,4.48,-22.24,-35.86
2020-06-29 10:50:31,1.064,0.417,2.314,5.127,-9.033,-1.343,4.59,-22.34,-35.89
2020-06-29 10:50:31,1.076,0.294,2.271,0.427,-6.897,-1.282,4.66,-22.42,-35.90
2020-06-29 10:50:31,1.034,0.173,2.252,-4.456,-2.258,-0.793,4.65,-22.47,-35.91
2020-06-29 10:50:31,0.976,0.036,2.239,-7.324,3.540,-0.183,4.57,-22.46,-35.91
2020-06-29 10:50:31,0.888,-0.071,2.271,-7.263,8.118,0.549,4.45,-22.38,-35.90
2020-06-29 10:50:31,0.826,-0.057,2.293,-4.395,8.789,1.282,4.34,-22.29,-35.88
2020-06-29 10:50:31,0.794,0.066,2.342,0.000,6.470,1.404,4.28,-22.20,-35.86
2020-06-29 10:50:31,0.820,0.239,2.348,4.822,1.282,0.916,4.30,-22.15,-35.85
2020-06-29 10:50:31,0.935,0.373,2.365,7.935,-4.761,0.000,4.39,-22.17,-35.85
2020-06-29 10:50:31,1.044,0.413,2.335,7.202,-8.728,-1.038,4.51,-22.25,-35.87
2020-06-29 10:50:31,1.079,0.384,2.308,4.333,-8.850,-1.343,4.62,-22.35,-35.89
2020-06-29 10:50:31,1.075,0.263,2.266,-0.244,-6.042,-1.160,4.67,-22.43,-35.91
2020-06-29 10:50:31,1.027,0.119,2.246,-5.127,-1.404,-0.732,4.64,-22.48,-35.92
2020-06-29 10:50:31,0.943,0.048,2.260,-7.385,4.395,0.000,4.55,-22.45,-35.91
2020-06-29 10:50:31,0.847,-0.026,2.287,-6.775,8.728,0.732,4.44,-22.37,-35.90
2020-06-29 10:50:31,0.813,-0.054,2.307,-3.601,8.667,1.404,4.35,-22.26,-35.88
2020-06-29 10:50:31,0.818,0.059,2.329,0.610,5.676,1.404,4.30,-22.18,-35.86
2020-06-29 10:50:31,0.842,0.243,2.353,5.554,0.305,0.793,4.32,-22.15,-35.85
2020-06-29 10:50:31,0.936,0.395,2.377,8.423,-5.493,-0.305,4.42,-22.18,-35.86
2020-06-29 10:50:31,1.041,0.438,2.315,6.897,-8.972,-1.160,4.54,-22.26,-35.88
2020-06-29 10:50:31,1.086,0.383,2.324,3.540,-8.667,-1.343,4.65,-22.36,-35.90
2020-06-29 10:50:31,1.083,0.248,2.248,-1.282,-5.310,-1.038,4.69,-22.43,-35.91
2020-06-29 10:50:31,1.043,0.052,2.232,-5.798,-0.488,-0.610,4.65,-22.47,-35.92
2020-06-29 10:50:31,0.945,-0.005,2.265,-7.874,5.127,0.000,4.54,-22.45,-35.91
2020-06-29 10:50:31,0.822,-0.002,2.293,-6.470,9.033,0.793,4.42,-22.36,-35.90
2020-06-29 10:50:31,0.770,-0.003,2.324,-2.930,8.667,1.343,4.34,-22.25,-35.88
2020-06-29 10:50:31,0.815,0.091,2.332,1.160,4.639,1.282,4.30,-22.16,-35.86
2020-06-29 10:50:31,0.875,0.243,2.356,5.859,-0.854,0.549,4.33,-22.14,-35.85
2020-06-29 10:50:31,0.959,0.378,2.366,8.301,-6.348,-0.488,4.44,-22.19,-35.86
2020-06-29 10:50:31,1.039,0.436,2.313,6.531,-9.277,-1.282,4.55,-22.27,-35.89
2020-06-29 10:50:31,1.075,0.387,2.320,2.747,-8.362,-1.404,4.65,-22.37,-35.91
2020-06-29 10:50:31,1.061,0.261,2.251,-2.136,-4.822,-1.038,4.69,-22.44,-35.93
2020-06-29 10:50:31,1.025,0.061,2.242,-6.042,0.488,-0.610,4.65,-22.46,-35.93
2020-06-29 10:50:31,0.949,-0.067,2.249,-8.118,5.798,0.000,4.53,-22.42,-35.93
2020-06-29 10:50:31,0.852,-0.061,2.291,-6.104,9.033,0.977,4.41,-22.34,-35.91
2020-06-29 10:50:31,0.759,0.018,2.327,-2.197,8.484,1.465,4.31,-22.24,-35.89
2020-06-29 10:50:31,0.791,0.163,2.353,2.441,3.845,1.343,4.30,-22.16,-35.87
2020-06-29 10:50:31,0.893,0.291,2.355,6.653,-1.831,0.427,4.36,-22.14,-35.86
2020-06-29 10:50:31,0.995,0.373,2.359,8.057,-7.141,-0.610,4.47,-22.19,-35.88
2020-06-29 10:50:31,1.055,0.405,2.312,6.104,-9.277,-1.221,4.58,-22.29,-35.90
2020-06-29 10:50:31,1.066,0.359,2.284,2.258,-7.874,-1.221,4.66,-22.38,-35.92
2020-06-29 10:50:31,1.053,0.216,2.268,-2.686,-4.028,-0.854,4.69,-22.45,-35.93
2020-06-29 10:50:31,1.004,0.073,2.234,-6.592,1.587,-0.427,4.63,-22.46,-35.94
2020-06-29 10:50:31,0.917,-0.028,2.264,-7.629,6.592,0.305,4.52,-22.41,-35.93
2020-06-29 10:50:31,0.851,-0.068,2.298,-5.493,9.033,1.099,4.41,-22.32,-35.90
2020-06-29 10:50:31,0.792,-0.018,2.302,-1.831,7.996,1.526,4.32,-22.22,-35.88
2020-06-29 10:50:31,0.802,0.160,2.353,3.174,3.052,1.160,4.30,-22.16,-35.87
2020-06-29 10:50:31,0.901,0.327,2.362,7.202,-2.686,0.244,4.36,-22.15,-35.86
2020-06-29 10:50:31,1.009,0.413,2.350,7.874,-7.690,-0.854,4.48,-22.21,-35.88
2020-06-29 10:50:31,1.074,0.411,2.314,5.371,-9.216,-1.282,4.60,-22.31,-35.90
2020-06-29 10:50:31,1.076,0.317,2.274,1.099,-7.446,-1.282,4.67,-22.40,-35.93
2020-06-29 10:50:31,1.052,0.173,2.262,-3.662,-3.174,-0.916,4.67,-22.46,-35.94
2020-06-29 10:50:31,1.003,0.017,2.215,-7.202,2.563,-0.305,4.60,-22.46,-35.94
2020-06-29 10:50:31,0.901,-0.051,2.281,-7.568,7.324,0.366,4.48,-22.41,-35.93
2020-06-29 10:50:31,0.831,-0.036,2.299,-4.822,9.094,1.160,4.37,-22.31,-35.91
2020-06-29 10:50:31,0.790,0.036,2.323,-0.854,7.324,1.404,4.30,-22.21,-35.89
2020-06-29 10:50:31,0.816,0.183,2.356,4.028,2.258,1.038,4.30,-22.16,-35.88
2020-06-29 10:50:31,0.929,0.327,2.351,7.751,-3.784,0.000,4.38,-22.16,-35.88
2020-06-29 10:50:31,1.018,0.411,2.349,7.751,-8.240,-0.916,4.49,-22.24,-35.89
2020-06-29 10:50:31,1.063,0.414,2.313,5.127,-8.972,-1.282,4.61,-22.33,-35.91
2020-06-29 10:50:31,1.069,0.295,2.267,0.671,-6.897,-1.160,4.67,-22.42,-35.93
2020-06-29 10:50:31,1.036,0.179,2.264,-4.333,-2.502,-0.732,4.66,-22.47,-35.94
2020-06-29 10:50:31,0.979,0.032,2.235,-7.202,3.418,-0.183,4.59,-22.46,-35.94
2020-06-29 10:50:31,0.895,-0.071,2.275,-7.141,7.935,0.549,4.48,-22.39,-35.93
2020-06-29 10:50:31,0.833,-0.059,2.293,-4.395,8.911,1.343,4.36,-22.30,-35.91
2020-06-29 10:50:31,0.791,0.063,2.341,0.000,6.592,1.526,4.30,-22.21,-35.89
2020-06-29 10:50:31,0.809,0.241,2.353,4.822,1.404,0.977,4.31,-22.16,-35.88
2020-06-29 10:50:31,0.938,0.370,2.368,7.874,-4.761,0.000,4.41,-22.17,-35.88
2020-06-29 10:50:31,1.040,0.416,2.332,7.202,-8.667,-1.038,4.53,-22.25,-35.90
2020-06-29 10:50:31,1.074,0.388,2.311,4.211,-9.033,-1.404,4.64,-22.35,-35.92
2020-06-29 10:50:31,1.077,0.258,2.255,-0.366,-6.348,-1.282,4.69,-22.43,-35.94
2020-06-29 10:50:31,1.023,0.135,2.251,-5.066,-1.709,-0.854,4.66,-22.48,-35.95
2020-06-29 10:50:31,0.944,0.049,2.267,-7.568,4.028,-0.183,4.58,-22.46,-35.95
2020-06-29 10:50:31,0.861,-0.038,2.279,-6.958,8.484,0.671,4.47,-22.38,-35.93
2020-06-29 10:50:31,0.818,-0.064,2.301,-3.967,8.728,1.282,4.37,-22.28,-35.91
2020-06-29 10:50:31,0.813,0.053,2.330,0.488,5.737,1.465,4.30,-22.19,-35.89
2020-06-29 10:50:31,0.833,0.247,2.355,5.493,0.549,0.916,4.32,-22.16,-35.88
2020-06-29 10:50:31,0.937,0.395,2.369,8.118,-5.371,0.000,4.42,-22.19,-35.89
2020-06-29 10:50:31,1.047,0.437,2.318,7.019,-8.972,-0.977,4.55,-22.26,-35.90
2020-06-29 10:50:31,1.084,0.381,2.317,3.662,-8.728,-1.282,4.65,-22.37,-35.93
2020-06-29 10:50:32,1.087,0.241,2.240,-1.160,-5.676,-0.977,4.70,-22.45,-35.94
2020-06-29 10:50:32,1.043,0.054,2.239,-5.371,-0.793,-0.610,4.66,-22.49,-35.95
2020-06-29 10:50:32,0.942,0.011,2.269,-7.568,4.822,0.000,4.55,-22.46,-35.94
2020-06-29 10:50:32,0.829,-0.001,2.288,-6.287,9.155,0.916,4.44,-22.37,-35.93
2020-06-29 10:50:32,0.777,-0.014,2.329,-2.930,8.911,1.526,4.36,-22.26,-35.90
2020-06-29 10:50:32,0.811,0.086,2.324,1.160,4.944,1.465,4.31,-22.18,-35.88
2020-06-29 10:50:32,0.865,0.237,2.355,5.859,-0.305,0.732,4.35,-22.15,-35.88
2020-06-29 10:50:32,0.950,0.374,2.360,8.240,-5.981,-0.305,4.44,-22.19,-35.88
2020-06-29 10:50:32,1.040,0.444,2.319,6.470,-9.155,-1.160,4.56,-22.27,-35.90
2020-06-29 10:50:32,1.079,0.396,2.313,2.930,-8.423,-1.343,4.66,-22.37,-35.93
2020-06-29 10:50:32,1.067,0.253,2.262,-2.014,-5.005,-0.977,4.70,-22.45,-35.94
2020-06-29 10:50:32,1.029,0.057,2.236,-6.104,0.427,-0.610,4.66,-22.47,-35.95
2020-06-29 10:50:32,0.947,-0.061,2.259,-7.996,5.798,0.000,4.54,-22.43,-35.94
2020-06-29 10:50:32,0.845,-0.058,2.283,-6.165,9.216,0.916,4.41,-22.34,-35.92
2020-06-29 10:50:32,0.762,0.014,2.330,-2.319,8.667,1.404,4.32,-22.24,-35.90
2020-06-29 10:50:32,0.790,0.155,2.344,2.258,4.150,1.221,4.30,-22.16,-35.88
2020-06-29 10:50:32,0.890,0.284,2.361,6.470,-1.770,0.305,4.36,-22.14,-35.88
2020-06-29 10:50:32,0.990,0.372,2.355,8.179,-7.202,-0.732,4.47,-22.19,-35.90
2020-06-29 10:50:32,1.055,0.401,2.312,6.226,-9.399,-1.282,4.58,-22.29,-35.92
2020-06-29 10:50:32,1.069,0.364,2.291,2.258,-8.179,-1.343,4.67,-22.39,-35.94
2020-06-29 10:50:32,1.056,0.216,2.268,-2.625,-4.395,-0.977,4.69,-22.46,-35.95
2020-06-29 10:50:32,1.011,0.062,2.233,-6.470,1.221,-0.488,4.64,-22.47,-35.96
2020-06-29 10:50:32,0.916,-0.025,2.276,-7.507,6.409,0.244,4.53,-22.42,-35.95
2020-06-29 10:50:32,0.845,-0.069,2.289,-5.615,9.155,1.099,4.41,-22.32,-35.93
2020-06-29 10:50:32,0.792,-0.016,2.306,-1.709,8.057,1.526,4.32,-22.23,-35.91
2020-06-29 10:50:32,0.797,0.158,2.353,3.113,3.418,1.343,4.30,-22.16,-35.89
2020-06-29 10:50:32,0.901,0.320,2.351,7.080,-2.563,0.366,4.37,-22.15,-35.89
2020-06-29 10:50:32,1.003,0.420,2.355,8.057,-7.507,-0.793,4.49,-22.21,-35.90
2020-06-29 10:50:32,1.073,0.412,2.308,5.432,-9.460,-1.282,4.60,-22.31,-35.93
2020-06-29 10:50:32,1.082,0.325,2.273,1.465,-7.874,-1.282,4.68,-22.41,-35.94
2020-06-29 10:50:32,1.059,0.172,2.260,-3.479,-3.601,-0.977,4.69,-22.47,-35.96
2020-06-29 10:50:32,1.023,0.007,2.225,-7.019,2.014,-0.427,4.61,-22.48,-35.96
2020-06-29 10:50:32,0.909,-0.048,2.281,-7.385,7.263,0.244,4.49,-22.43,-35.95
2020-06-29 10:50:32,0.829,-0.025,2.298,-5.066,9.155,1.160,4.38,-22.34,-35.93
2020-06-29 10:50:32,0.788,0.035,2.325,-0.977,7.874,1.526,4.31,-22.23,-35.91
2020-06-29 10:50:32,0.807,0.172,2.349,3.723,2.991,1.221,4.31,-22.16,-35.89
2020-06-29 10:50:32,0.922,0.317,2.349,7.263,-3.296,0.244,4.38,-22.16,-35.89
2020-06-29 10:50:32,1.011,0.410,2.351,7.629,-7.751,-0.854,4.49,-22.24,-35.91
2020-06-29 10:50:32,1.062,0.418,2.300,5.066,-9.155,-1.282,4.60,-22.33,-35.93
2020-06-29 10:50:32,1.073,0.301,2.280,0.549,-7.263,-1.221,4.67,-22.42,-35.95
2020-06-29 10:50:32,1.043,0.177,2.258,-4.456,-2.625,-0.854,4.66,-22.47,-35.96
2020-06-29 10:50:32,0.999,0.026,2.230,-7.263,3.113,-0.305,4.59,-22.47,-35.96
2020-06-29 10:50:32,0.901,-0.083,2.285,-7.446,8.118,0.488,4.47,-22.40,-35.95
2020-06-29 10:50:32,0.834,-0.053,2.295,-4.456,9.216,1.282,4.36,-22.30,-35.93
2020-06-29 10:50:32,0.779,0.067,2.340,-0.305,7.324,1.526,4.28,-22.21,-35.90
2020-06-29 10:50:32,0.807,0.235,2.355,4.517,2.197,1.099,4.30,-22.15,-35.89
2020-06-29 10:50:32,0.933,0.361,2.357,7.690,-4.028,0.000,4.39,-22.15,-35.90
2020-06-29 10:50:32,1.040,0.410,2.328,7.080,-8.301,-1.038,4.51,-22.23,-35.91
2020-06-29 10:50:32,1.071,0.392,2.311,4.333,-8.789,-1.404,4.62,-22.33,-35.94
2020-06-29 10:50:32,1.078,0.254,2.260,-0.366,-6.348,-1.160,4.67,-22.41,-35.95
2020-06-29 10:50:32,1.029,0.139,2.253,-4.944,-1.831,-0.793,4.64,-22.46,-35.96
2020-06-29 10:50:32,0.941,0.055,2.265,-7.385,4.089,-0.183,4.56,-22.44,-35.96
2020-06-29 10:50:32,0.865,-0.047,2.274,-6.958,8.545,0.671,4.45,-22.36,-35.95
2020-06-29 10:50:32,0.824,-0.064,2.298,-3.906,9.094,1.404,4.35,-22.25,-35.93
2020-06-29 10:50:32,0.807,0.060,2.339,0.488,6.226,1.526,4.28,-22.17,-35.90
2020-06-29 10:50:32,0.821,0.257,2.351,5.371,1.038,0.916,4.31,-22.13,-35.89
2020-06-29 10:50:32,0.936,0.396,2.368,8.118,-5.127,-0.244,4.41,-22.15,-35.90
2020-06-29 10:50:32,1.052,0.437,2.323,6.836,-8.911,-1.160,4.53,-22.23,-35.92
2020-06-29 10:50:32,1.085,0.381,2.314,3.479,-8.728,-1.465,4.64,-22.33,-35.94
2020-06-29 10:50:32,1.088,0.238,2.241,-1.343,-5.737,-1.160,4.68,-22.41,-35.96
2020-06-29 10:50:32,1.047,0.054,2.250,-5.493,-0.732,-0.854,4.64,-22.45,-35.97
2020-06-29 10:50:32,0.942,0.004,2.255,-7.813,5.005,-0.183,4.53,-22.43,-35.97
2020-06-29 10:50:32,0.834,0.000,2.294,-6.348,9.216,0.671,4.42,-22.34,-35.95
2020-06-29 10:50:32,0.777,-0.003,2.330,-2.991,9.338,1.404,4.33,-22.23,-35.93
2020-06-29 10:50:32,0.812,0.091,2.319,1.221,5.371,1.526,4.30,-22.13,-35.91
2020-06-29 10:50:32,0.861,0.242,2.361,5.920,0.000,0.793,4.33,-22.10,-35.90
2020-06-29 10:50:32,0.950,0.375,2.360,8.240,-5.676,-0.305,4.43,-22.14,-35.91
2020-06-29 10:50:32,1.038,0.444,2.303,6.470,-8.850,-1.221,4.55,-22.22,-35.93
2020-06-29 10:50:32,1.073,0.395,2.325,2.747,-8.301,-1.465,4.65,-22.32,-35.95
2020-06-29 10:50:32,1.077,0.237,2.242,-2.136,-4.883,-1.160,4.68,-22.39,-35.97
2020-06-29 10:50:32,1.023,0.057,2.244,-6.165,0.488,-0.793,4.64,-22.41,-35.97
2020-06-29 10:50:32,0.928,-0.051,2.262,-7.813,5.920,0.000,4.53,-22.38,-35.97
2020-06-29 10:50:32,0.855,-0.063,2.286,-5.981,9.399,0.977,4.40,-22.29,-35.95
2020-06-29 10:50:32,0.781,-0.005,2.327,-2.258,9.155,1.587,4.31,-22.18,-35.93
2020-06-29 10:50:32,0.797,0.154,2.349,2.502,4.700,1.465,4.28,-22.09,-35.91
2020-06-29 10:50:32,0.881,0.302,2.360,6.470,-0.977,0.610,4.34,-22.07,-35.90
2020-06-29 10:50:32,0.992,0.387,2.346,7.874,-6.653,-0.549,4.45,-22.12,-35.91
2020-06-29 10:50:32,1.063,0.405,2.308,5.798,-8.972,-1.343,4.56,-22.21,-35.94
2020-06-29 10:50:32,1.070,0.353,2.288,1.770,-7.935,-1.404,4.65,-22.31,-35.96
2020-06-29 10:50:32,1.073,0.188,2.254,-3.113,-4.089,-1.038,4.66,-22.37,-35.97
2020-06-29 10:50:32,1.025,0.026,2.238,-6.836,1.465,-0.488,4.60,-22.39,-35.97
2020-06-29 10:50:32,0.916,-0.037,2.276,-7.751,6.775,0.305,4.48,-22.35,-35.97
2020-06-29 10:50:32,0.835,-0.035,2.298,-5.310,9.338,1.160,4.36,-22.25,-35.95
2020-06-29 10:50:32,0.784,0.003,2.319,-1.648,8.362,1.709,4.28,-22.15,-35.92
2020-06-29 10:50:32,0.805,0.157,2.349,3.296,3.479,1.343,4.27,-22.08,-35.90
2020-06-29 10:50:32,0.903,0.317,2.344,7.080,-2.441,0.427,4.33,-22.07,-35.90
2020-06-29 10:50:32,1.004,0.411,2.349,7.813,-7.568,-0.732,4.45,-22.13,-35.91
2020-06-29 10:50:32,1.067,0.428,2.299,5.310,-9.033,-1.343,4.56,-22.23,-35.94
2020-06-29 10:50:32,1.082,0.312,2.275,0.732,-7.568,-1.343,4.64,-22.32,-35.96
2020-06-29 10:50:32,1.060,0.178,2.260,-3.906,-3.296,-0.977,4.64,-22.38,-35.97
2020-06-29 10:50:32,1.011,-0.007,2.219,-7.141,2.502,-0.366,4.56,-22.38,-35.97
2020-06-29 10:50:32,0.917,-0.086,2.282,-7.446,7.385,0.427,4.44,-22.34,-35.96
2020-06-29 10:50:32,0.826,-0.034,2.296,-4.578,9.399,1.343,4.32,-22.24,-35.94
2020-06-29 10:50:32,0.778,0.064,2.340,-0.427,7.690,1.770,4.26,-22.14,-35.91
2020-06-29 10:50:32,0.806,0.219,2.354,4.272,2.747,1.343,4.27,-22.08,-35.90
2020-06-29 10:50:32,0.931,0.334,2.353,7.507,-3.540,0.244,4.35,-22.08,-35.90
2020-06-29 10:50:32,1.028,0.402,2.338,7.446,-8.118,-0.916,4.47,-22.15,-35.91
2020-06-29 10:50:32,1.066,0.408,2.295,4.578,-8.789,-1.404,4.58,-22.25,-35.94
2020-06-29 10:50:32,1.087,0.269,2.271,0.000,-6.775,-1.404,4.64,-22.34,-35.96
2020-06-29 10:50:33,1.030,0.165,2.260,-4.761,-2.197,-0.977,4.61,-22.39,-35.97
2020-06-29 10:50:33,0.959,0.049,2.252,-7.324,3.723,-0.366,4.54,-22.37,-35.97
2020-06-29 10:50:33,0.890,-0.074,2.287,-6.958,8.484,0.488,4.43,-22.30,-35.96
2020-06-29 10:50:33,0.833,-0.072,2.288,-4.089,9.338,1.404,4.32,-22.20,-35.94
2020-06-29 10:50:33,0.793,0.070,2.348,0.366,6.897,1.587,4.26,-22.11,-35.91
2020-06-29 10:50:33,0.808,0.261,2.354,5.188,1.892,1.099,4.27,-22.06,-35.90
2020-06-29 10:50:33,0.932,0.393,2.360,7.996,-4.578,0.000,4.38,-22.07,-35.90
2020-06-29 10:50:33,1.046,0.427,2.327,6.897,-8.484,-1.160,4.50,-22.14,-35.93
2020-06-29 10:50:33,1.086,0.378,2.308,3.601,-8.789,-1.587,4.61,-22.25,-35.95
2020-06-29 10:50:33,1.085,0.244,2.251,-1.099,-5.920,-1.404,4.65,-22.33,-35.97
2020-06-29 10:50:33,1.040,0.069,2.249,-5.310,-0.977,-0.916,4.62,-22.37,-35.98
2020-06-29 10:50:33,0.939,0.008,2.269,-7.690,4.578,-0.244,4.51,-22.35,-35.98
2020-06-29 10:50:33,0.847,-0.013,2.288,-6.470,9.094,0.671,4.40,-22.26,-35.96
2020-06-29 10:50:33,0.789,-0.007,2.342,-2.930,9.338,1.465,4.31,-22.15,-35.94
2020-06-29 10:50:33,0.804,0.091,2.324,1.160,5.737,1.648,4.27,-22.06,-35.91
2020-06-29 10:50:33,0.851,0.249,2.360,5.737,0.427,0.916,4.31,-22.03,-35.91
2020-06-29 10:50:33,0.942,0.378,2.357,8.179,-5.432,-0.244,4.41,-22.06,-35.91
2020-06-29 10:50:33,1.040,0.443,2.304,6.348,-8.972,-1.221,4.52,-22.14,-35.94
2020-06-29 10:50:33,1.081,0.396,2.320,2.747,-8.484,-1.526,4.63,-22.24,-35.96
2020-06-29 10:50:33,1.087,0.223,2.243,-2.136,-5.249,-1.221,4.66,-22.31,-35.97
2020-06-29 10:50:33,1.023,0.056,2.253,-6.104,0.000,-0.793,4.61,-22.35,-35.99
2020-06-29 10:50:33,0.921,-0.036,2.260,-7.751,5.676,0.000,4.50,-22.31,-35.98
2020-06-29 10:50:33,0.854,-0.069,2.282,-5.981,9.155,0.916,4.38,-22.23,-35.96
2020-06-29 10:50:33,0.787,-0.009,2.332,-2.258,8.911,1.587,4.29,-22.12,-35.94
2020-06-29 10:50:33,0.799,0.156,2.335,2.563,4.700,1.587,4.26,-22.04,-35.91
2020-06-29 10:50:33,0.878,0.303,2.374,6.531,-0.977,0.671,4.32,-22.02,-35.91
2020-06-29 10:50:33,0.990,0.392,2.335,7.813,-6.653,-0.488,4.43,-22.07,-35.92
2020-06-29 10:50:33,1.066,0.411,2.302,5.737,-9.155,-1.282,4.54,-22.16,-35.94
2020-06-29 10:50:33,1.080,0.349,2.282,1.770,-8.057,-1.404,4.63,-22.26,-35.96
2020-06-29 10:50:33,1.085,0.169,2.246,-3.235,-4.211,-1.160,4.64,-22.33,-35.98
2020-06-29 10:50:33,1.027,0.012,2.238,-7.019,1.404,-0.671,4.57,-22.35,-35.99
2020-06-29 10:50:33,0.905,-0.026,2.277,-7.568,6.836,0.183,4.45,-22.31,-35.98
2020-06-29 10:50:33,0.828,-0.035,2.301,-5.127,9.521,1.099,4.34,-22.21,-35.96
2020-06-29 10:50:33,0.786,0.012,2.314,-1.526,8.484,1.709,4.26,-22.10,-35.93
2020-06-29 10:50:33,0.808,0.150,2.350,3.479,3.601,1.404,4.25,-22.03,-35.91
2020-06-29 10:50:33,0.908,0.310,2.355,7.202,-2.380,0.488,4.32,-22.02,-35.91
2020-06-29 10:50:33,0.999,0.418,2.340,7.751,-7.324,-0.732,4.43,-22.09,-35.93
2020-06-29 10:50:33,1.071,0.433,2.305,5.127,-9.094,-1.404,4.55,-22.18,-35.95
2020-06-29 10:50:33,1.088,0.312,2.273,0.793,-7.385,-1.404,4.63,-22.27,-35.97
2020-06-29 10:50:33,1.056,0.176,2.263,-4.028,-2.930,-1.160,4.62,-22.34,-35.99
2020-06-29 10:50:33,1.014,-0.017,2.218,-7.202,2.808,-0.549,4.55,-22.34,-35.99
2020-06-29 10:50:33,0.913,-0.092,2.282,-7.202,7.874,0.000,4.42,-22.28,-35.98
2020-06-29 10:50:33,0.818,-0.030,2.294,-4.333,9.521,1.099,4.31,-22.18,-35.96
2020-06-29 10:50:33,0.770,0.085,2.350,0.000,7.751,1.526,4.25,-22.08,-35.94
2020-06-29 10:50:33,0.808,0.226,2.354,4.578,2.625,1.160,4.27,-22.02,-35.93
2020-06-29 10:50:33,0.940,0.342,2.349,7.446,-3.906,0.244,4.35,-22.02,-35.93
2020-06-29 10:50:33,1.027,0.400,2.345,7.263,-8.057,-0.854,4.47,-22.10,-35.94
2020-06-29 10:50:33,1.070,0.408,2.284,4.333,-8.850,-1.282,4.57,-22.20,-35.96
2020-06-29 10:50:33,1.087,0.264,2.277,-0.427,-6.653,-1.343,4.63,-22.29,-35.98
2020-06-29 10:50:33,1.029,0.152,2.259,-4.883,-1.953,-0.977,4.61,-22.34,-36.00
2020-06-29 10:50:33,0.950,0.052,2.253,-7.507,3.906,-0.305,4.53,-22.32,-36.00
2020-06-29 10:50:33,0.881,-0.067,2.291,-6.897,8.545,0.488,4.42,-22.24,-35.98
2020-06-29 10:50:33,0.826,-0.070,2.290,-3.662,9.338,1.282,4.31,-22.14,-35.96
2020-06-29 10:50:33,0.792,0.069,2.345,0.671,6.409,1.526,4.25,-22.05,-35.94
2020-06-29 10:50:33,0.818,0.263,2.354,5.493,1.343,0.977,4.28,-22.01,-35.93
2020-06-29 10:50:33,0.939,0.400,2.361,8.118,-5.005,0.000,4.38,-22.02,-35.93
2020-06-29 10:50:33,1.050,0.435,2.326,6.714,-8.850,-1.038,4.50,-22.10,-35.95
2020-06-29 10:50:33,1.090,0.378,2.294,3.296,-8.606,-1.404,4.61,-22.21,-35.97
2020-06-29 10:50:33,1.080,0.233,2.251,-1.465,-5.676,-1.221,4.65,-22.29,-35.99
2020-06-29 10:50:33,1.020,0.072,2.244,-5.493,-0.610,-0.854,4.61,-22.33,-36.00
2020-06-29 10:50:33,0.935,-0.010,2.269,-7.751,4.822,0.000,4.50,-22.30,-36.00
2020-06-29 10:50:33,0.857,-0.034,2.288,-6.348,9.033,0.854,4.38,-22.21,-35.98
2020-06-29 10:50:33,0.788,-0.005,2.344,-2.808,9.094,1.526,4.30,-22.11,-35.95
2020-06-29 10:50:33,0.796,0.117,2.323,1.648,5.310,1.648,4.26,-22.02,-35.93
2020-06-29 10:50:33,0.852,0.261,2.370,5.859,0.000,0.854,4.30,-21.99,-35.93
2020-06-29 10:50:33,0.964,0.375,2.341,7.996,-5.920,-0.305,4.41,-22.03,-35.93
2020-06-29 10:50:33,1.046,0.434,2.311,6.165,-8.850,-1.099,4.52,-22.12,-35.95
2020-06-29 10:50:33,1.079,0.394,2.307,2.441,-8.301,-1.404,4.61,-22.21,-35.97
2020-06-29 10:50:33,1.096,0.202,2.239,-2.441,-4.883,-1.038,4.65,-22.29,-35.99
2020-06-29 10:50:33,1.017,0.053,2.259,-6.470,0.732,-0.610,4.59,-22.31,-36.00
2020-06-29 10:50:33,0.903,-0.014,2.268,-7.629,6.042,0.183,4.48,-22.27,-35.99
2020-06-29 10:50:33,0.842,-0.064,2.287,-5.737,9.277,0.977,4.37,-22.18,-35.97
2020-06-29 10:50:33,0.793,-0.021,2.329,-2.014,8.545,1.587,4.27,-22.08,-35.94
2020-06-29 10:50:33,0.802,0.146,2.332,2.808,4.150,1.465,4.25,-22.01,-35.93
2020-06-29 10:50:33,0.883,0.309,2.383,6.897,-1.526,0.549,4.31,-21.99,-35.92
2020-06-29 10:50:33,0.995,0.408,2.332,7.996,-6.653,-0.549,4.42,-22.03,-35.93
2020-06-29 10:50:33,1.075,0.418,2.316,5.493,-9.033,-1.343,4.54,-22.13,-35.95
2020-06-29 10:50:33,1.086,0.345,2.280,1.465,-7.690,-1.343,4.62,-22.23,-35.97
2020-06-29 10:50:33,1.079,0.157,2.245,-3.357,-3.662,-1.099,4.63,-22.30,-35.99
2020-06-29 10:50:33,1.021,-0.014,2.237,-7.019,2.075,-0.488,4.56,-22.31,-35.99
2020-06-29 10:50:33,0.894,-0.037,2.282,-7.507,7.202,0.305,4.43,-22.26,-35.99
2020-06-29 10:50:33,0.810,-0.020,2.309,-4.944,9.521,1.160,4.32,-22.16,-35.96
2020-06-29 10:50:33,0.786,0.034,2.324,-1.038,8.057,1.587,4.25,-22.05,-35.94
2020-06-29 10:50:33,0.821,0.155,2.351,3.723,2.991,1.221,4.25,-21.99,-35.93
2020-06-29 10:50:33,0.923,0.311,2.354,7.324,-3.113,0.244,4.32,-21.99,-35.93
2020-06-29 10:50:33,1.000,0.410,2.340,7.690,-7.629,-0.916,4.43,-22.06,-35.94
2020-06-29 10:50:33,1.069,0.428,2.301,5.005,-9.155,-1.404,4.54,-22.15,-35.96
2020-06-29 10:50:33,1.085,0.304,2.274,0.427,-7.141,-1.404,4.61,-22.25,-35.99
2020-06-29 10:50:33,1.039,0.175,2.260,-4.333,-2.625,-1.160,4.61,-22.30,-36.00
2020-06-29 10:50:33,1.000,-0.009,2.216,-7.446,3.296,-0.549,4.53,-22.30,-36.00
2020-06-29 10:50:33,0.915,-0.110,2.284,-7.202,8.057,0.305,4.41,-22.24,-35.99
2020-06-29 10:50:33,0.820,-0.043,2.285,-4.089,9.583,1.221,4.29,-22.14,-35.97
2020-06-29 10:50:33,0.766,0.098,2.354,0.000,7.263,1.526,4.23,-22.04,-35.95
2020-06-29 10:50:33,0.813,0.248,2.360,4.822,2.014,1.099,4.25,-21.98,-35.94
2020-06-29 10:50:33,0.944,0.359,2.350,7.568,-4.333,0.000,4.35,-21.99,-35.94
2020-06-29 10:50:33,1.037,0.396,2.347,7.019,-8.362,-0.977,4.47,-22.07,-35.96
2020-06-29 10:50:33,1.037,0.396,2.347,3.967,-8.728,-1.343,4.56,-22.18,-35.98
2020-06-29 10:50:33,1.075,0.391,2.280,3.967,-8.728,-1.343,4.66,-22.27,-36.00
2020-06-29 10:50:33,1.091,0.264,2.266,-0.610,-6.348,-1.282,4.71,-22.36,-36.02
2020-06-29 10:50:33,1.029,0.135,2.259,-4.944,-1.526,-0.916,4.69,-22.41,-36.03
2020-06-29 10:50:33,0.942,0.042,2.258,-7.751,4.211,-0.305,4.60,-22.38,-36.03
2020-06-29 10:50:34,0.873,-0.042,2.299,-6.714,8.728,0.610,4.49,-22.30,-36.01
2020-06-29 10:50:34,0.809,-0.047,2.303,-3.540,9.399,1.343,4.39,-22.20,-35.99
2020-06-29 10:50:34,0.789,0.076,2.334,0.732,6.042,1.526,4.34,-22.11,-35.97
2020-06-29 10:50:34,0.827,0.254,2.360,5.493,1.038,1.038,4.36,-22.07,-35.96
2020-06-29 10:50:34,0.943,0.399,2.361,7.935,-5.127,0.000,4.46,-22.09,-35.96
2020-06-29 10:50:34,1.043,0.448,2.330,6.592,-8.850,-0.916,4.58,-22.16,-35.98
2020-06-29 10:50:34,1.097,0.389,2.298,2.930,-8.545,-1.221,4.68,-22.26,-36.00
2020-06-29 10:50:34,1.089,0.230,2.243,-1.770,-5.493,-1.038,4.72,-22.35,-36.02
2020-06-29 10:50:34,1.010,0.083,2.253,-5.737,0.000,-0.610,4.68,-22.38,-36.02
2020-06-29 10:50:34,0.925,-0.021,2.260,-7.813,5.188,0.000,4.57,-22.35,-36.02
2020-06-29 10:50:34,0.864,-0.063,2.285,-6.348,9.094,0.916,4.45,-22.26,-36.00
2020-06-29 10:50:34,0.791,-0.004,2.342,-2.625,9.033,1.587,4.36,-22.15,-35.97
2020-06-29 10:50:34,0.794,0.138,2.329,1.953,4.883,1.526,4.32,-22.07,-35.96
2020-06-29 10:50:34,0.866,0.273,2.382,6.165,-0.549,0.793,4.37,-22.05,-35.95
2020-06-29 10:50:34,0.977,0.374,2.332,7.935,-6.165,-0.305,4.48,-22.09,-35.96
2020-06-29 10:50:34,1.058,0.412,2.316,6.042,-9.094,-1.099,4.59,-22.18,-35.97
2020-06-29 10:50:34,1.083,0.382,2.292,2.075,-8.179,-1.343,4.67,-22.28,-36.00
2020-06-29 10:50:34,1.089,0.187,2.233,-2.563,-4.333,-0.977,4.70,-22.35,-36.01
2020-06-29 10:50:34,1.004,0.052,2.263,-6.592,1.221,-0.549,4.64,-22.37,-36.02
2020-06-29 10:50:34,0.893,-0.012,2.262,-7.690,6.470,0.305,4.53,-22.32,-36.01
2020-06-29 10:50:34,0.839,-0.068,2.294,-5.737,9.338,1.038,4.41,-22.23,-35.99
2020-06-29 10:50:34,0.802,-0.025,2.316,-1.709,8.362,1.587,4.33,-22.12,-35.96
2020-06-29 10:50:34,0.809,0.138,2.330,3.052,3.723,1.343,4.30,-22.06,-35.95
2020-06-29 10:50:34,0.886,0.314,2.381,7.080,-2.075,0.366,4.36,-22.04,-35.95
2020-06-29 10:50:34,0.997,0.417,2.329,7.996,-7.080,-0.671,4.48,-22.10,-35.96
2020-06-29 10:50:34,1.078,0.414,2.313,5.432,-9.216,-1.404,4.59,-22.19,-35.98
2020-06-29 10:50:34,1.088,0.340,2.275,1.221,-7.568,-1.343,4.67,-22.29,-36.00
2020-06-29 10:50:34,1.075,0.157,2.239,-3.540,-3.296,-1.038,4.68,-22.36,-36.02
2020-06-29 10:50:34,1.025,-0.018,2.228,-7.141,2.502,-0.427,4.60,-22.36,-36.02
2020-06-29 10:50:34,0.895,-0.044,2.286,-7.446,7.568,0.427,4.47,-22.31,-36.01
2020-06-29 10:50:34,0.806,-0.004,2.302,-4.761,9.583,1.099,4.36,-22.21,-35.99
2020-06-29 10:50:34,0.780,0.051,2.327,-0.671,7.813,1.465,4.30,-22.10,-35.96
2020-06-29 10:50:34,0.824,0.165,2.352,3.967,2.625,1.038,4.31,-22.04,-35.95
2020-06-29 10:50:34,0.927,0.312,2.353,7.446,-3.418,0.000,4.38,-22.05,-35.95
2020-06-29 10:50:34,1.005,0.410,2.350,7.751,-7.813,-0.977,4.49,-22.12,-35.97
2020-06-29 10:50:34,1.071,0.428,2.294,4.883,-9.033,-1.465,4.60,-22.21,-36.00
2020-06-29 10:50:34,1.091,0.309,2.280,0.305,-6.958,-1.404,4.67,-22.30,-36.02
2020-06-29 10:50:34,1.037,0.176,2.253,-4.456,-2.258,-1.038,4.66,-22.36,-36.03
2020-06-29 10:50:34,0.988,0.014,2.228,-7.507,3.601,-0.366,4.59,-22.35,-36.03
2020-06-29 10:50:34,0.903,-0.099,2.292,-7.202,8.362,0.488,4.47,-22.27,-36.02
2020-06-29 10:50:34,0.820,-0.054,2.279,-4.089,9.644,1.282,4.36,-22.18,-36.00
2020-06-29 10:50:34,0.768,0.096,2.357,0.000,7.019,1.465,4.29,-22.08,-35.97
2020-06-29 10:50:34,0.814,0.250,2.353,4.944,1.892,1.038,4.31,-22.02,-35.96
2020-06-29 10:50:34,0.943,0.373,2.366,7.874,-4.456,0.000,4.41,-22.04,-35.96
2020-06-29 10:50:34,1.032,0.401,2.342,6.897,-8.362,-1.038,4.53,-22.12,-35.99
2020-06-29 10:50:34,1.087,0.374,2.275,3.723,-8.789,-1.404,4.63,-22.21,-36.01
2020-06-29 10:50:34,1.083,0.271,2.279,-0.671,-6.165,-1.221,4.67,-22.30,-36.02
2020-06-29 10:50:34,1.024,0.125,2.242,-5.066,-1.160,-0.793,4.65,-22.35,-36.04
2020-06-29 10:50:34,0.952,0.014,2.260,-7.935,4.333,0.000,4.55,-22.32,-36.03
2020-06-29 10:50:34,0.874,-0.048,2.302,-6.897,8.789,0.793,4.44,-22.24,-36.01
2020-06-29 10:50:34,0.799,-0.029,2.301,-3.357,9.338,1.465,4.34,-22.14,-35.99
2020-06-29 10:50:34,0.779,0.083,2.343,0.916,5.920,1.587,4.29,-22.05,-35.97
2020-06-29 10:50:34,0.836,0.243,2.356,5.493,0.671,0.977,4.32,-22.01,-35.96
2020-06-29 10:50:34,0.947,0.381,2.358,8.179,-5.310,-0.183,4.42,-22.03,-35.96
2020-06-29 10:50:34,1.032,0.434,2.331,6.653,-8.789,-1.099,4.54,-22.12,-35.99
2020-06-29 10:50:34,1.095,0.388,2.295,3.052,-8.545,-1.465,4.64,-22.21,-36.01
2020-06-29 10:50:34,1.088,0.244,2.247,-1.648,-5.310,-1.160,4.67,-22.30,-36.02
2020-06-29 10:50:34,1.004,0.099,2.259,-5.676,0.000,-0.671,4.64,-22.33,-36.03
2020-06-29 10:50:35,0.923,-0.024,2.252,-7.813,5.432,0.000,4.54,-22.29,-36.02
2020-06-29 10:50:35,0.870,-0.081,2.287,-6.409,9.094,0.977,4.42,-22.20,-36.01
2020-06-29 10:50:35,0.794,-0.018,2.324,-2.563,9.033,1.648,4.32,-22.10,-35.98
2020-06-29 10:50:35,0.784,0.148,2.343,2.136,4.822,1.648,4.28,-22.02,-35.96
2020-06-29 10:50:35,0.862,0.290,2.372,6.226,-0.732,0.732,4.33,-21.99,-35.95
2020-06-29 10:50:35,0.989,0.380,2.339,7.935,-6.531,-0.427,4.44,-22.03,-35.96
2020-06-29 10:50:35,1.056,0.402,2.326,5.981,-9.216,-1.282,4.56,-22.13,-35.99
2020-06-29 10:50:35,1.086,0.371,2.276,2.136,-8.179,-1.465,4.64,-22.23,-36.01
2020-06-29 10:50:35,1.087,0.186,2.240,-2.502,-4.333,-1.221,4.67,-22.30,-36.02
2020-06-29 10:50:35,0.997,0.071,2.265,-6.409,1.282,-0.732,4.61,-22.32,-36.03
2020-06-29 10:50:35,0.891,-0.002,2.255,-7.629,6.470,0.000,4.50,-22.27,-36.02
2020-06-29 10:50:35,0.844,-0.069,2.301,-5.737,9.460,0.916,4.39,-22.18,-36.01
2020-06-29 10:50:35,0.803,-0.025,2.303,-1.831,8.545,1.587,4.30,-22.07,-35.99
2020-06-29 10:50:35,0.806,0.142,2.343,3.174,3.845,1.404,4.28,-22.01,-35.96
2020-06-29 10:50:35,0.880,0.316,2.373,6.958,-1.770,0.549,4.34,-21.99,-35.96
2020-06-29 10:50:35,0.993,0.418,2.334,7.996,-7.080,-0.549,4.45,-22.04,-35.97
2020-06-29 10:50:35,1.074,0.420,2.319,5.554,-9.216,-1.282,4.58,-22.14,-36.00
2020-06-29 10:50:35,1.090,0.346,2.276,1.282,-7.629,-1.404,4.65,-22.24,-36.01
2020-06-29 10:50:35,1.092,0.150,2.237,-3.479,-3.418,-1.160,4.66,-22.30,-36.03
2020-06-29 10:50:35,1.028,-0.003,2.237,-7.141,2.258,-0.549,4.59,-22.32,-36.04
2020-06-29 10:50:35,0.885,-0.030,2.293,-7.324,7.507,0.244,4.46,-22.27,-36.02
2020-06-29 10:50:35,0.804,-0.005,2.305,-4.883,9.766,1.160,4.36,-22.16,-36.01
2020-06-29 10:50:35,0.781,0.040,2.324,-1.099,8.057,1.587,4.29,-22.05,-35.98
2020-06-29 10:50:35,0.826,0.157,2.349,3.723,2.869,1.160,4.29,-21.99,-35.97
2020-06-29 10:50:35,0.916,0.310,2.355,7.324,-3.113,0.305,4.36,-21.99,-35.96
2020-06-29 10:50:35,1.002,0.406,2.342,7.629,-7.690,-0.854,4.47,-22.06,-35.98
2020-06-29 10:50:35,1.073,0.426,2.298,4.822,-9.094,-1.343,4.58,-22.16,-36.00
2020-06-29 10:50:35,1.088,0.322,2.287,0.244,-7.080,-1.343,4.65,-22.25,-36.02
2020-06-29 10:50:35,1.048,0.176,2.237,-4.395,-2.502,-0.977,4.64,-22.30,-36.04
2020-06-29 10:50:35,1.005,-0.010,2.238,-7.629,3.174,-0.305,4.56,-22.30,-36.04
2020-06-29 10:50:35,0.906,-0.098,2.284,-7.385,8.118,0.549,4.44,-22.24,-36.02
2020-06-29 10:50:35,0.807,-0.034,2.278,-4.272,9.644,1.465,4.32,-22.14,-36.00
2020-06-29 10:50:35,0.766,0.093,2.366,0.000,7.141,1.648,4.26,-22.04,-35.97
2020-06-29 10:50:35,0.819,0.240,2.343,4.639,1.831,1.160,4.28,-21.98,-35.96
2020-06-29 10:50:35,0.935,0.358,2.367,7.813,-4.456,0.000,4.37,-22.00,-35.97
2020-06-29 10:50:35,1.026,0.390,2.343,7.141,-8.484,-0.977,4.49,-22.08,-35.99
2020-06-29 10:50:35,1.083,0.378,2.279,3.967,-8.972,-1.404,4.59,-22.18,-36.01
2020-06-29 10:50:35,1.083,0.294,2.282,-0.427,-6.348,-1.282,4.64,-22.27,-36.02
2020-06-29 10:50:35,1.034,0.142,2.242,-4.700,-1.526,-0.854,4.63,-22.31,-36.04
2020-06-29 10:50:35,0.961,0.018,2.257,-7.751,4.211,-0.183,4.54,-22.30,-36.04
2020-06-29 10:50:35,0.879,-0.050,2.298,-6.958,8.850,0.854,4.42,-22.21,-36.02
2020-06-29 10:50:35,0.793,-0.037,2.296,-3.601,9.521,1.587,4.32,-22.11,-35.99
2020-06-29 10:50:35,0.773,0.082,2.349,0.793,6.104,1.648,4.27,-22.02,-35.97
2020-06-29 10:50:35,0.834,0.238,2.348,5.432,0.793,0.916,4.30,-21.97,-35.96
2020-06-29 10:50:35,0.944,0.375,2.378,8.057,-5.371,-0.183,4.39,-22.01,-35.96
2020-06-29 10:50:35,1.031,0.435,2.328,6.897,-8.911,-1.160,4.52,-22.08,-35.99
2020-06-29 10:50:35,1.099,0.386,2.292,3.235,-8.728,-1.526,4.61,-22.18,-36.01
2020-06-29 10:50:35,1.090,0.259,2.266,-1.404,-5.554,-1.282,4.66,-22.27,-36.03
2020-06-29 10:50:35,1.010,0.107,2.245,-5.493,0.000,-0.854,4.63,-22.30,-36.04
2020-06-29 10:50:35,0.941,-0.029,2.251,-7.874,5.188,0.000,4.53,-22.27,-36.04
2020-06-29 10:50:35,0.874,-0.077,2.298,-6.470,9.338,0.916,4.40,-22.18,-36.01
2020-06-29 10:50:35,0.785,-0.008,2.310,-2.930,9.277,1.526,4.30,-22.08,-35.99
2020-06-29 10:50:35,0.781,0.137,2.348,1.770,5.127,1.526,4.27,-21.99,-35.97
2020-06-29 10:50:35,0.861,0.267,2.369,6.042,-0.305,0.671,4.31,-21.96,-35.96
2020-06-29 10:50:35,0.981,0.373,2.341,8.118,-6.287,-0.427,4.42,-22.00,-35.97
2020-06-29 10:50:35,1.045,0.408,2.330,6.226,-9.033,-1.282,4.54,-22.09,-36.00
2020-06-29 10:50:35,1.091,0.375,2.284,2.502,-8.240,-1.465,4.62,-22.19,-36.02
2020-06-29 10:50:35,1.078,0.223,2.246,-2.197,-4.456,-1.160,4.65,-22.27,-36.04
2020-06-29 10:50:35,0.990,0.101,2.264,-6.287,1.038,-0.610,4.60,-22.29,-36.04
2020-06-29 10:50:35,0.913,-0.016,2.253,-7.751,6.226,0.183,4.50,-22.24,-36.03
2020-06-29 10:50:35,0.865,-0.090,2.292,-6.165,9.460,0.977,4.39,-22.15,-36.01
2020-06-29 10:50:35,0.800,-0.029,2.307,-2.197,8.606,1.587,4.29,-22.05,-35.99
2020-06-29 10:50:35,0.790,0.153,2.360,2.808,4.150,1.343,4.26,-21.98,-35.97
2020-06-29 10:50:35,0.868,0.314,2.367,6.775,-1.465,0.488,4.32,-21.96,-35.97
2020-06-29 10:50:35,0.995,0.398,2.348,8.057,-7.019,-0.671,4.44,-22.01,-35.98
2020-06-29 10:50:35,1.073,0.405,2.328,5.737,-9.216,-1.404,4.55,-22.10,-36.00
2020-06-29 10:50:35,1.091,0.347,2.266,1.648,-7.690,-1.404,4.63,-22.20,-36.02
2020-06-29 10:50:35,1.088,0.156,2.243,-3.113,-3.601,-1.099,4.65,-22.27,-36.04
2020-06-29 10:50:35,0.994,0.049,2.250,-6.958,1.953,-0.366,4.57,-22.29,-36.04
2020-06-29 10:50:35,0.867,0.004,2.274,-7.446,7.141,0.427,4.46,-22.23,-36.03
2020-06-29 10:50:35,0.823,-0.043,2.307,-5.493,9.460,1.160,4.36,-22.12,-36.01
2020-06-29 10:50:35,0.804,-0.006,2.301,-1.709,7.874,1.648,4.27,-22.02,-35.99
2020-06-29 10:50:35,0.822,0.149,2.356,3.479,2.930,1.221,4.26,-21.97,-35.97
2020-06-29 10:50:35,0.896,0.322,2.359,7.263,-2.686,0.305,4.32,-21.97,-35.97
2020-06-29 10:50:35,0.998,0.416,2.349,7.813,-7.629,-0.793,4.44,-22.03,-35.99
2020-06-29 10:50:35,1.079,0.432,2.309,5.127,-9.094,-1.343,4.56,-22.12,-36.01
2020-06-29 10:50:35,1.088,0.337,2.283,0.793,-7.202,-1.343,4.63,-22.22,-36.03
2020-06-29 10:50:35,1.080,0.149,2.225,-3.906,-2.686,-0.916,4.64,-22.27,-36.04
2020-06-29 10:50:35,1.019,-0.025,2.233,-7.568,2.869,-0.244,4.55,-22.28,-36.04
2020-06-29 10:50:35,0.888,-0.057,2.282,-7.385,7.813,0.549,4.42,-22.23,-36.03
2020-06-29 10:50:35,0.796,-0.004,2.297,-4.456,9.521,1.343,4.31,-22.13,-36.01
2020-06-29 10:50:35,0.777,0.069,2.340,-0.671,7.263,1.648,4.25,-22.02,-35.98
2020-06-29 10:50:35,0.836,0.193,2.351,4.272,2.075,1.160,4.26,-21.97,-35.97
2020-06-29 10:50:35,0.929,0.325,2.358,7.629,-3.906,0.000,4.35,-21.98,-35.97
2020-06-29 10:50:35,1.012,0.389,2.343,7.446,-7.996,-0.977,4.46,-22.06,-35.99
2020-06-29 10:50:35,1.072,0.410,2.288,4.578,-8.667,-1.343,4.56,-22.15,-36.01
2020-06-29 10:50:35,1.087,0.315,2.294,0.000,-6.592,-1.282,4.63,-22.24,-36.03
2020-06-29 10:50:35,1.046,0.164,2.228,-4.578,-1.709,-0.854,4.62,-22.29,-36.04
2020-06-29 10:50:35,0.979,0.021,2.261,-7.751,3.967,-0.183,4.54,-22.27,-36.04
2020-06-29 10:50:35,0.884,-0.074,2.278,-7.202,8.728,0.671,4.42,-22.20,-36.02
2020-06-29 10:50:35,0.804,-0.049,2.286,-4.028,9.521,1.404,4.31,-22.09,-36.00
2020-06-29 10:50:35,0.772,0.083,2.353,0.244,6.592,1.526,4.25,-22.01,-35.98
2020-06-29 10:50:35,0.838,0.241,2.346,5.127,1.160,0.916,4.27,-21.96,-35.97
2020-06-29 10:50:35,0.937,0.380,2.373,7.996,-4.944,-0.183,4.37,-21.98,-35.97
2020-06-29 10:50:35,1.030,0.410,2.341,6.897,-8.728,-1.099,4.49,-22.06,-35.99
2020-06-29 10:50:35,1.095,0.374,2.277,3.723,-8.728,-1.526,4.59,-22.15,-36.02
2020-06-29 10:50:35,1.078,0.279,2.282,-1.038,-5.859,-1.221,4.64,-22.25,-36.04
2020-06-29 10:50:35,1.024,0.112,2.230,-5.127,-0.610,-0.793,4.61,-22.28,-36.05
2020-06-29 10:50:35,0.960,-0.011,2.260,-7.874,4.761,0.000,4.52,-22.26,-36.04
2020-06-29 10:50:35,0.873,-0.058,2.291,-6.836,9.094,0.854,4.39,-22.18,-36.02
2020-06-29 10:50:35,0.783,-0.007,2.320,-3.235,9.277,1.526,4.29,-22.07,-36.00
2020-06-29 10:50:35,0.775,0.110,2.337,1.099,5.493,1.587,4.25,-21.98,-35.97
2020-06-29 10:50:35,0.858,0.238,2.365,5.798,0.000,0.732,4.29,-21.95,-35.97
2020-06-29 10:50:35,0.953,0.363,2.356,8.057,-5.798,-0.305,4.39,-21.98,-35.97
2020-06-29 10:50:35,1.031,0.415,2.333,6.592,-9.094,-1.221,4.50,-22.07,-36.00
2020-06-29 10:50:35,1.091,0.386,2.290,3.052,-8.362,-1.465,4.60,-22.16,-36.02
2020-06-29 10:50:35,1.074,0.267,2.257,-1.831,-5.066,-1.221,4.64,-22.25,-36.04
2020-06-29 10:50:35,1.007,0.108,2.248,-5.798,0.427,-0.732,4.60,-22.27,-36.05
2020-06-29 10:50:35,0.947,-0.042,2.249,-7.935,5.615,0.000,4.50,-22.24,-36.04
2020-06-29 10:50:35,0.878,-0.093,2.288,-6.531,9.338,0.977,4.38,-22.15,-36.02
2020-06-29 10:50:35,0.780,0.000,2.321,-2.441,8.850,1.648,4.27,-22.05,-36.00
2020-06-29 10:50:35,0.776,0.166,2.348,2.197,4.700,1.526,4.25,-21.97,-35.97
2020-06-29 10:50:35,0.872,0.291,2.370,6.348,-0.977,0.549,4.31,-21.95,-35.97
2020-06-29 10:50:35,0.990,0.374,2.345,8.057,-6.653,-0.549,4.42,-21.99,-35.99
2020-06-29 10:50:35,1.057,0.398,2.332,6.104,-9.033,-1.343,4.53,-22.08,-36.01
2020-06-29 10:50:35,1.087,0.355,2.270,2.075,-7.874,-1.465,4.61,-22.18,-36.03
2020-06-29 10:50:35,1.070,0.208,2.252,-2.380,-4.089,-1.160,4.64,-22.25,-36.05
2020-06-29 10:50:35,0.979,0.098,2.266,-6.409,1.648,-0.549,4.58,-22.26,-36.05
2020-06-29 10:50:35,0.893,-0.008,2.260,-7.629,6.531,0.305,4.48,-22.21,-36.04
2020-06-29 10:50:35,0.852,-0.090,2.295,-5.920,9.399,1.099,4.37,-22.12,-36.02
2020-06-29 10:50:35,0.807,-0.027,2.302,-1.831,8.301,1.709,4.27,-22.02,-36.00
2020-06-29 10:50:35,0.795,0.159,2.353,3.052,3.845,1.343,4.25,-21.95,-35.97
2020-06-29 10:50:35,0.876,0.327,2.367,6.958,-2.136,0.488,4.31,-21.94,-35.97
2020-06-29 10:50:35,1.001,0.415,2.354,8.118,-7.202,-0.732,4.43,-21.99,-35.99
2020-06-29 10:50:35,1.078,0.406,2.316,5.310,-9.216,-1.404,4.55,-22.09,-36.01
2020-06-29 10:50:35,1.092,0.333,2.269,1.221,-7.568,-1.465,4.63,-22.19,-36.03
2020-06-29 10:50:35,1.086,0.149,2.236,-3.357,-3.113,-1.160,4.64,-22.25,-36.05
2020-06-29 10:50:35,1.012,0.011,2.236,-7.324,2.319,-0.488,4.55,-22.26,-36.05
2020-06-29 10:50:35,0.871,-0.012,2.283,-7.385,7.507,0.366,4.43,-22.21,-36.04
2020-06-29 10:50:35,0.805,-0.013,2.311,-5.005,9.460,1.221,4.33,-22.10,-36.02
2020-06-29 10:50:35,0.801,0.018,2.314,-1.282,7.507,1.587,4.26,-22.01,-36.00
2020-06-29 10:50:35,0.833,0.153,2.351,3.784,2.563,1.099,4.26,-21.95,-35.98
2020-06-29 10:50:35,0.906,0.317,2.360,7.385,-3.296,0.183,4.32,-21.96,-35.98
2020-06-29 10:50:35,1.001,0.410,2.354,7.751,-7.813,-0.977,4.44,-22.02,-36.00
2020-06-29 10:50:35,1.073,0.432,2.301,4.944,-8.911,-1.526,4.55,-22.12,-36.02
2020-06-29 10:50:35,1.094,0.320,2.294,0.366,-6.958,-1.404,4.63,-22.21,-36.05
2020-06-29 10:50:35,1.060,0.166,2.217,-4.272,-2.197,-0.977,4.62,-22.26,-36.06
2020-06-29 10:50:35,0.999,-0.003,2.249,-7.629,3.296,-0.183,4.54,-22.26,-36.06
2020-06-29 10:50:35,0.896,-0.078,2.276,-7.263,8.118,0.671,4.42,-22.20,-36.04
2020-06-29 10:50:35,0.808,-0.028,2.292,-4.272,9.338,1.465,4.30,-22.10,-36.02
2020-06-29 10:50:35,0.776,0.090,2.353,0.000,6.836,1.648,4.25,-22.01,-36.00
2020-06-29 10:50:35,0.835,0.232,2.349,4.822,1.770,1.099,4.27,-21.95,-35.98
2020-06-29 10:50:35,0.927,0.354,2.368,7.629,-4.333,0.000,4.36,-21.97,-35.99
2020-06-29 10:50:36,1.023,0.393,2.345,7.263,-8.362,-1.038,4.48,-22.04,-36.00
2020-06-29 10:50:36,1.076,0.387,2.283,4.211,-8.667,-1.526,4.58,-22.14,-36.02
2020-06-29 10:50:36,1.079,0.297,2.295,-0.427,-6.104,-1.343,4.63,-22.23,-36.05
2020-06-29 10:50:36,1.038,0.133,2.223,-4.883,-1.160,-0.854,4.61,-22.26,-36.06
2020-06-29 10:50:36,0.972,0.018,2.271,-7.751,4.028,0.000,4.53,-22.25,-36.05
2020-06-29 10:50:36,0.870,-0.038,2.292,-6.775,8.789,0.854,4.41,-22.18,-36.04
2020-06-29 10:50:36,0.789,-0.028,2.305,-3.662,9.216,1.465,4.31,-22.07,-36.01
2020-06-29 10:50:36,0.783,0.086,2.339,0.488,5.859,1.587,4.26,-21.98,-35.99
2020-06-29 10:50:36,0.849,0.238,2.356,5.432,0.671,0.916,4.28,-21.95,-35.98
2020-06-29 10:50:36,0.936,0.375,2.372,7.874,-5.310,-0.244,4.38,-21.97,-35.99
2020-06-29 10:50:36,1.025,0.430,2.333,6.775,-8.606,-1.160,4.50,-22.05,-36.01
2020-06-29 10:50:36,1.089,0.380,2.294,3.174,-8.423,-1.526,4.60,-22.15,-36.03
2020-06-29 10:50:36,1.085,0.274,2.268,-1.404,-5.493,-1.221,4.64,-22.23,-36.05
2020-06-29 10:50:36,1.024,0.096,2.230,-5.615,0.000,-0.732,4.61,-22.26,-36.06
2020-06-29 10:50:36,0.961,-0.037,2.257,-8.057,4.822,0.000,4.51,-22.24,-36.05
2020-06-29 10:50:36,0.869,-0.063,2.286,-6.470,9.094,1.038,4.38,-22.15,-36.04
2020-06-29 10:50:36,0.775,0.005,2.326,-2.808,8.789,1.587,4.28,-22.06,-36.01
2020-06-29 10:50:36,0.786,0.141,2.343,1.648,4.883,1.587,4.25,-21.97,-35.99
2020-06-29 10:50:36,0.873,0.253,2.371,6.104,-0.488,0.671,4.30,-21.95,-35.98
2020-06-29 10:50:36,0.974,0.363,2.350,8.118,-6.226,-0.427,4.41,-21.99,-35.99
2020-06-29 10:50:36,1.035,0.406,2.330,6.348,-8.728,-1.282,4.52,-22.08,-36.01
2020-06-29 10:50:36,1.083,0.364,2.280,2.563,-7.935,-1.465,4.61,-22.17,-36.04
2020-06-29 10:50:36,1.063,0.250,2.254,-2.075,-4.456,-1.099,4.64,-22.24,-36.05
2020-06-29 10:50:36,0.986,0.111,2.262,-6.104,1.160,-0.610,4.60,-22.26,-36.06
2020-06-29 10:50:36,0.934,-0.035,2.248,-7.751,6.104,0.244,4.50,-22.21,-36.05
2020-06-29 10:50:36,0.874,-0.104,2.292,-6.226,9.155,1.099,4.38,-22.13,-36.03
2020-06-29 10:50:36,0.798,-0.013,2.315,-2.014,8.362,1.648,4.28,-22.03,-36.00
2020-06-29 10:50:36,0.786,0.177,2.354,2.869,4.150,1.404,4.25,-21.96,-35.99
2020-06-29 10:50:36,0.876,0.314,2.376,6.714,-1.648,0.427,4.32,-21.94,-35.98
2020-06-29 10:50:36,1.000,0.398,2.346,7.935,-7.019,-0.671,4.43,-21.99,-36.00
2020-06-29 10:50:36,1.062,0.394,2.329,5.676,-8.850,-1.404,4.55,-22.08,-36.02
2020-06-29 10:50:36,1.087,0.333,2.264,1.465,-7.446,-1.465,4.63,-22.18,-36.04
2020-06-29 10:50:36,1.076,0.173,2.249,-3.052,-3.357,-1.282,4.64,-22.24,-36.06
2020-06-29 10:50:36,0.978,0.073,2.256,-7.019,2.258,-0.549,4.56,-22.25,-36.06
2020-06-29 10:50:36,0.870,0.007,2.271,-7.507,7.202,0.305,4.46,-22.19,-36.05
2020-06-29 10:50:36,0.831,-0.058,2.304,-5.615,9.399,1.160,4.36,-22.09,-36.03
2020-06-29 10:50:36,0.812,-0.020,2.302,-1.587,7.629,1.587,4.27,-21.99,-36.01
2020-06-29 10:50:36,0.819,0.152,2.350,3.540,2.930,1.221,4.26,-21.94,-35.99
2020-06-29 10:50:36,0.895,0.335,2.366,7.507,-2.869,0.244,4.32,-21.94,-35.99
2020-06-29 10:50:36,1.003,0.427,2.344,7.996,-7.568,-0.854,4.44,-22.00,-36.01
2020-06-29 10:50:36,1.076,0.417,2.318,5.249,-8.972,-1.465,4.56,-22.09,-36.03
2020-06-29 10:50:36,1.093,0.313,2.277,0.732,-6.958,-1.404,4.64,-22.19,-36.05
2020-06-29 10:50:36,1.065,0.153,2.225,-3.906,-2.441,-1.038,4.64,-22.24,-36.06
2020-06-29 10:50:36,1.007,-0.009,2.242,-7.507,2.991,-0.244,4.55,-22.25,-36.06
2020-06-29 10:50:36,0.890,-0.056,2.274,-7.263,7.935,0.610,4.43,-22.19,-36.05
2020-06-29 10:50:36,0.806,-0.010,2.304,-4.517,9.277,1.404,4.32,-22.09,-36.03
2020-06-29 10:50:36,0.789,0.067,2.341,-0.671,6.958,1.648,4.26,-21.99,-36.00
2020-06-29 10:50:36,0.839,0.202,2.347,4.395,1.892,1.099,4.27,-21.94,-35.99
2020-06-29 10:50:36,0.923,0.336,2.368,7.629,-4.028,0.000,4.35,-21.96,-36.00
2020-06-29 10:50:36,1.017,0.393,2.342,7.324,-8.179,-1.038,4.47,-22.03,-36.01
2020-06-29 10:50:36,1.067,0.404,2.296,4.456,-8.606,-1.465,4.57,-22.13,-36.04
2020-06-29 10:50:36,1.086,0.306,2.290,-0.244,-6.348,-1.343,4.63,-22.21,-36.06
2020-06-29 10:50:36,1.050,0.142,2.225,-4.822,-1.587,-0.854,4.61,-22.26,-36.07
2020-06-29 10:50:36,0.976,0.023,2.266,-7.751,3.906,0.000,4.53,-22.25,-36.06
2020-06-29 10:50:36,0.868,-0.046,2.285,-7.019,8.606,0.793,4.41,-22.18,-36.05
2020-06-29 10:50:36,0.798,-0.042,2.292,-3.967,9.155,1.526,4.31,-22.07,-36.02
2020-06-29 10:50:36,0.790,0.074,2.344,0.183,6.104,1.587,4.25,-21.98,-36.00
2020-06-29 10:50:36,0.846,0.242,2.349,5.310,1.038,0.977,4.27,-21.94,-35.99
2020-06-29 10:50:36,0.928,0.381,2.383,8.057,-4.883,-0.183,4.37,-21.97,-36.00
2020-06-29 10:50:36,1.024,0.419,2.328,7.019,-8.484,-1.099,4.49,-22.04,-36.01
2020-06-29 10:50:36,1.086,0.377,2.303,3.601,-8.423,-1.526,4.60,-22.14,-36.04
2020-06-29 10:50:36,1.085,0.275,2.271,-1.099,-5.493,-1.221,4.64,-22.21,-36.06
2020-06-29 10:50:36,1.033,0.089,2.223,-5.249,-0.488,-0.671,4.61,-22.25,-36.06
2020-06-29 10:50:36,0.962,-0.016,2.271,-7.935,4.822,0.000,4.51,-22.23,-36.06
2020-06-29 10:50:36,0.854,-0.030,2.288,-6.531,9.094,1.038,4.39,-22.15,-36.04
2020-06-29 10:50:36,0.774,0.003,2.325,-2.991,8.789,1.587,4.30,-22.05,-36.01
2020-06-29 10:50:36,0.797,0.118,2.341,1.221,5.127,1.587,4.26,-21.96,-35.99
2020-06-29 10:50:36,0.876,0.241,2.353,5.798,-0.244,0.732,4.30,-21.93,-35.99
2020-06-29 10:50:36,0.958,0.373,2.368,8.179,-5.981,-0.427,4.40,-21.98,-36.00
2020-06-29 10:50:36,1.024,0.427,2.327,6.470,-8.606,-1.282,4.52,-22.06,-36.02
2020-06-29 10:50:36,1.085,0.372,2.295,2.747,-7.996,-1.587,4.61,-22.15,-36.04
2020-06-29 10:50:36,1.063,0.270,2.266,-2.075,-4.578,-1.160,4.65,-22.22,-36.06
2020-06-29 10:50:36,1.000,0.104,2.250,-5.981,0.793,-0.671,4.61,-22.24,-36.06
2020-06-29 10:50:36,0.950,-0.053,2.246,-7.935,5.859,0.183,4.51,-22.20,-36.06
2020-06-29 10:50:36,0.870,-0.094,2.296,-6.348,9.216,1.038,4.38,-22.12,-36.04
2020-06-29 10:50:36,0.780,0.007,2.325,-2.258,8.545,1.587,4.28,-22.02,-36.01
2020-06-29 10:50:36,0.783,0.178,2.349,2.502,4.272,1.404,4.26,-21.95,-36.00
2020-06-29 10:50:36,0.885,0.298,2.376,6.653,-1.404,0.488,4.32,-21.92,-35.99
2020-06-29 10:50:36,0.996,0.382,2.344,7.935,-6.836,-0.610,4.43,-21.97,-36.00
2020-06-29 10:50:36,1.050,0.393,2.327,5.920,-8.911,-1.465,4.55,-22.07,-36.02
2020-06-29 10:50:36,1.083,0.338,2.271,1.953,-7.446,-1.465,4.63,-22.16,-36.05
2020-06-29 10:50:36,1.060,0.196,2.256,-2.869,-3.662,-1.099,4.64,-22.23,-36.06
2020-06-29 10:50:36,0.967,0.102,2.248,-6.653,1.953,-0.488,4.58,-22.24,-36.07
2020-06-29 10:50:36,0.888,-0.008,2.262,-7.507,6.897,0.366,4.48,-22.18,-36.06
2020-06-29 10:50:36,0.858,-0.091,2.304,-5.676,9.155,1.160,4.37,-22.08,-36.04
2020-06-29 10:50:36,0.813,-0.031,2.293,-1.831,7.813,1.587,4.28,-21.99,-36.01
2020-06-29 10:50:36,0.801,0.173,2.364,3.540,3.113,1.221,4.26,-21.93,-36.00
2020-06-29 10:50:36,0.891,0.342,2.371,7.263,-2.625,0.244,4.33,-21.93,-36.00
2020-06-29 10:50:36,1.008,0.421,2.341,7.813,-7.568,-0.977,4.45,-21.98,-36.01
2020-06-29 10:50:36,1.072,0.403,2.338,5.188,-9.033,-1.465,4.57,-22.08,-36.04
2020-06-29 10:50:36,1.092,0.305,2.258,0.671,-7.080,-1.343,4.64,-22.18,-36.06
2020-06-29 10:50:36,1.067,0.145,2.237,-3.967,-2.686,-1.038,4.63,-22.24,-36.07
2020-06-29 10:50:36,1.000,0.010,2.239,-7.446,2.808,-0.305,4.55,-22.24,-36.07
2020-06-29 10:50:36,0.888,-0.036,2.272,-7.385,7.751,0.610,4.43,-22.18,-36.06
2020-06-29 10:50:36,0.813,-0.021,2.308,-4.761,9.216,1.404,4.32,-22.08,-36.04
2020-06-29 10:50:36,0.801,0.041,2.325,-0.916,7.080,1.648,4.25,-21.99,-36.01
2020-06-29 10:50:36,0.835,0.188,2.349,4.211,2.197,1.038,4.26,-21.93,-36.00
2020-06-29 10:50:36,0.919,0.323,2.361,7.629,-3.784,0.000,4.34,-21.95,-36.00
2020-06-29 10:50:36,1.015,0.406,2.340,7.568,-7.996,-0.977,4.45,-22.02,-36.02
2020-06-29 10:50:36,1.067,0.414,2.315,4.639,-8.606,-1.465,4.56,-22.12,-36.04
2020-06-29 10:50:36,1.093,0.297,2.274,0.000,-6.348,-1.343,4.63,-22.20,-36.06
2020-06-29 10:50:37,1.049,0.147,2.232,-4.578,-1.709,-0.854,4.61,-22.25,-36.07
2020-06-29 10:50:37,0.971,0.030,2.259,-7.629,3.784,0.000,4.53,-22.24,-36.07
2020-06-29 10:50:37,0.867,-0.057,2.277,-6.958,8.545,0.854,4.42,-22.16,-36.05
2020-06-29 10:50:37,0.801,-0.049,2.294,-4.028,9.155,1.526,4.31,-22.06,-36.03
2020-06-29 10:50:37,0.796,0.076,2.346,0.183,6.165,1.648,4.25,-21.97,-36.01
2020-06-29 10:50:37,0.841,0.247,2.347,5.249,1.282,0.977,4.27,-21.93,-36.00
2020-06-29 10:50:37,0.932,0.378,2.384,8.057,-4.761,-0.183,4.37,-21.96,-36.00
2020-06-29 10:50:37,1.034,0.422,2.326,6.958,-8.545,-1.160,4.49,-22.03,-36.02
2020-06-29 10:50:37,1.084,0.373,2.308,3.784,-8.362,-1.465,4.59,-22.13,-36.04
2020-06-29 10:50:37,1.084,0.272,2.275,-0.916,-5.371,-1.221,4.64,-22.21,-36.06
2020-06-29 10:50:37,1.033,0.093,2.221,-5.310,-0.549,-0.732,4.61,-22.24,-36.07
2020-06-29 10:50:37,0.957,0.007,2.274,-7.813,4.883,0.000,4.51,-22.22,-36.06
2020-06-29 10:50:37,0.844,-0.021,2.289,-6.470,9.155,0.977,4.39,-22.14,-36.05
2020-06-29 10:50:37,0.779,-0.009,2.317,-3.296,8.850,1.526,4.31,-22.03,-36.02
2020-06-29 10:50:37,0.802,0.099,2.335,0.977,5.127,1.465,4.26,-21.95,-36.00
2020-06-29 10:50:37,0.868,0.240,2.354,5.859,-0.183,0.671,4.30,-21.92,-36.00
2020-06-29 10:50:37,0.948,0.381,2.369,8.240,-5.920,-0.488,4.40,-21.96,-36.01
2020-06-29 10:50:37,1.026,0.439,2.320,6.470,-8.728,-1.343,4.52,-22.04,-36.03
2020-06-29 10:50:37,1.086,0.375,2.308,2.991,-7.996,-1.587,4.62,-22.13,-36.05
2020-06-29 10:50:37,1.071,0.273,2.256,-1.953,-4.700,-1.160,4.65,-22.21,-36.07
2020-06-29 10:50:37,1.018,0.078,2.236,-5.920,0.671,-0.671,4.62,-22.23,-36.07
2020-06-29 10:50:37,0.962,-0.062,2.254,-8.057,5.737,0.000,4.51,-22.20,-36.07
2020-06-29 10:50:37,0.861,-0.060,2.291,-6.104,9.216,1.099,4.38,-22.12,-36.05
2020-06-29 10:50:37,0.764,0.020,2.335,-2.441,8.667,1.587,4.29,-22.02,-36.02
2020-06-29 10:50:37,0.787,0.163,2.347,2.258,4.333,1.404,4.27,-21.93,-36.01
2020-06-29 10:50:37,0.889,0.274,2.361,6.409,-1.221,0.488,4.32,-21.91,-36.00
2020-06-29 10:50:37,0.987,0.372,2.352,8.057,-6.714,-0.549,4.43,-21.97,-36.01
2020-06-29 10:50:37,1.040,0.403,2.327,6.042,-8.789,-1.343,4.55,-22.06,-36.04
2020-06-29 10:50:37,1.075,0.352,2.282,2.197,-7.629,-1.404,4.63,-22.15,-36.06
2020-06-29 10:50:37,1.054,0.229,2.261,-2.747,-3.784,-1.099,4.65,-22.21,-36.07
2020-06-29 10:50:37,0.973,0.104,2.252,-6.531,1.831,-0.488,4.60,-22.22,-36.07
2020-06-29 10:50:37,0.916,-0.029,2.246,-7.690,6.592,0.366,4.50,-22.16,-36.07
2020-06-29 10:50:37,0.869,-0.100,2.307,-5.920,9.155,1.221,4.38,-22.08,-36.05
2020-06-29 10:50:37,0.804,-0.020,2.301,-1.953,8.118,1.709,4.28,-21.98,-36.02
2020-06-29 10:50:37,0.793,0.181,2.363,3.296,3.540,1.404,4.26,-21.92,-36.00
2020-06-29 10:50:37,0.892,0.341,2.372,7.141,-2.197,0.366,4.33,-21.91,-36.00
2020-06-29 10:50:37,0.892,0.341,2.372,7.813,-7.324,-0.793,4.45,-21.97,-36.01
2020-06-29 10:50:37,1.009,0.416,2.344,7.813,-7.324,-0.793,4.57,-22.02,-36.03
2020-06-29 10:50:37,1.070,0.395,2.330,5.310,-8.789,-1.465,4.69,-22.12,-36.05
2020-06-29 10:50:37,1.086,0.304,2.258,0.916,-7.080,-1.404,4.75,-22.21,-36.07
2020-06-29 10:50:37,1.056,0.165,2.251,-3.784,-2.869,-1.038,4.75,-22.27,-36.09
2020-06-29 10:50:37,0.994,0.039,2.236,-7.324,2.625,-0.305,4.67,-22.27,-36.09
2020-06-29 10:50:37,0.895,-0.029,2.275,-7.507,7.629,0.549,4.55,-22.21,-36.08
2020-06-29 10:50:37,0.831,-0.029,2.315,-5.127,9.216,1.343,4.44,-22.12,-36.05
2020-06-29 10:50:37,0.807,0.027,2.313,-1.221,7.385,1.709,4.37,-22.02,-36.03
2020-06-29 10:50:37,0.828,0.175,2.360,4.028,2.502,1.160,4.37,-21.97,-36.01
2020-06-29 10:50:37,0.915,0.326,2.351,7.324,-3.418,0.000,4.44,-21.98,-36.02
2020-06-29 10:50:37,1.012,0.413,2.346,7.446,-7.874,-1.038,4.55,-22.04,-36.04
2020-06-29 10:50:37,1.066,0.416,2.321,4.883,-8.545,-1.526,4.67,-22.14,-36.06
2020-06-29 10:50:37,1.091,0.290,2.267,0.183,-6.348,-1.404,4.73,-22.22,-36.08
2020-06-29 10:50:37,1.046,0.152,2.242,-4.700,-1.892,-0.916,4.71,-22.27,-36.09
2020-06-29 10:50:37,0.968,0.042,2.251,-7.446,3.784,0.000,4.63,-22.26,-36.09
2020-06-29 10:50:37,0.868,-0.056,2.275,-7.202,8.484,0.732,4.52,-22.19,-36.07
2020-06-29 10:50:37,0.816,-0.058,2.295,-4.517,8.972,1.587,4.41,-22.09,-36.05
2020-06-29 10:50:37,0.804,0.070,2.341,-0.183,6.470,1.587,4.33,-22.00,-36.02
2020-06-29 10:50:37,0.834,0.241,2.357,4.944,1.404,0.977,4.36,-21.96,-36.01
2020-06-29 10:50:37,0.931,0.377,2.375,7.874,-4.578,-0.183,4.45,-21.97,-36.02
2020-06-29 10:50:37,1.033,0.421,2.329,6.958,-8.301,-1.221,4.57,-22.05,-36.04
2020-06-29 10:50:37,1.080,0.378,2.313,3.906,-8.423,-1.587,4.67,-22.14,-36.06
2020-06-29 10:50:37,1.083,0.264,2.266,-0.793,-5.493,-1.282,4.72,-22.23,-36.08
2020-06-29 10:50:37,1.029,0.101,2.233,-5.371,-0.916,-0.793,4.69,-22.26,-36.09
2020-06-29 10:50:37,0.948,0.032,2.269,-7.996,4.639,0.000,4.59,-22.24,-36.09
2020-06-29 10:50:37,0.841,-0.018,2.289,-6.714,8.911,0.854,4.48,-22.16,-36.07
2020-06-29 10:50:37,0.796,-0.027,2.312,-3.662,8.728,1.526,4.38,-22.06,-36.05
2020-06-29 10:50:37,0.819,0.071,2.329,0.610,5.554,1.526,4.33,-21.97,-36.02
2020-06-29 10:50:37,0.861,0.239,2.351,5.493,0.366,0.793,4.36,-21.94,-36.02
2020-06-29 10:50:37,0.940,0.395,2.376,8.179,-5.554,-0.366,4.45,-21.98,-36.02
2020-06-29 10:50:37,1.033,0.441,2.313,6.531,-8.545,-1.282,4.58,-22.06,-36.05
2020-06-29 10:50:37,1.089,0.374,2.314,3.052,-8.179,-1.587,4.68,-22.15,-36.07
2020-06-29 10:50:37,1.074,0.272,2.254,-1.831,-4.761,-1.160,4.71,-22.23,-36.09
2020-06-29 10:50:37,1.033,0.060,2.229,-5.859,0.305,-0.732,4.68,-22.25,-36.10
2020-06-29 10:50:37,0.964,-0.052,2.256,-8.057,5.615,0.000,4.56,-22.22,-36.09
2020-06-29 10:50:37,0.846,-0.042,2.297,-6.653,9.094,1.099,4.43,-22.14,-36.07
2020-06-29 10:50:37,0.762,0.021,2.330,-2.686,8.728,1.648,4.35,-22.04,-36.05
2020-06-29 10:50:37,0.793,0.134,2.341,1.648,4.700,1.526,4.31,-21.95,-36.02
2020-06-29 10:50:37,0.888,0.259,2.354,5.859,-0.916,0.610,4.36,-21.93,-36.02
2020-06-29 10:50:37,0.974,0.370,2.355,7.874,-6.226,-0.549,4.46,-21.98,-36.03
2020-06-29 10:50:37,1.036,0.419,2.315,6.226,-8.789,-1.343,4.58,-22.07,-36.05
2020-06-29 10:50:37,1.079,0.369,2.299,2.319,-7.568,-1.526,4.66,-22.15,-36.07
2020-06-29 10:50:37,1.051,0.251,2.264,-2.686,-3.845,-1.099,4.69,-22.22,-36.09
2020-06-29 10:50:37,0.991,0.093,2.244,-6.409,1.465,-0.549,4.64,-22.23,-36.10
2020-06-29 10:50:37,0.937,-0.055,2.249,-7.935,6.470,0.366,4.54,-22.18,-36.08
2020-06-29 10:50:37,0.868,-0.102,2.303,-6.165,9.216,1.221,4.41,-22.10,-36.06
2020-06-29 10:50:37,0.781,-0.008,2.308,-2.136,8.362,1.709,4.31,-22.00,-36.04
2020-06-29 10:50:37,0.785,0.183,2.363,2.869,3.601,1.404,4.28,-21.93,-36.02
2020-06-29 10:50:37,0.891,0.326,2.369,6.775,-2.014,0.305,4.35,-21.92,-36.02
2020-06-29 10:50:37,1.007,0.400,2.352,7.751,-7.263,-0.854,4.47,-21.97,-36.04
2020-06-29 10:50:37,1.065,0.399,2.322,5.554,-8.850,-1.465,4.59,-22.07,-36.06
2020-06-29 10:50:37,1.080,0.323,2.268,1.221,-7.080,-1.343,4.66,-22.16,-36.08
2020-06-29 10:50:37,1.057,0.182,2.260,-3.418,-2.991,-0.977,4.66,-22.22,-36.09
2020-06-29 10:50:37,0.989,0.058,2.235,-7.141,2.441,-0.305,4.59,-22.23,-36.09
2020-06-29 10:50:37,0.894,-0.019,2.269,-7.751,7.385,0.549,4.48,-22.17,-36.08
2020-06-29 10:50:37,0.838,-0.051,2.312,-5.371,9.094,1.404,4.37,-22.07,-36.06
2020-06-29 10:50:37,0.803,0.002,2.304,-1.587,7.507,1.648,4.28,-21.98,-36.04
2020-06-29 10:50:37,0.819,0.164,2.361,3.662,2.563,1.160,4.27,-21.93,-36.02
2020-06-29 10:50:37,0.910,0.329,2.357,7.385,-3.357,0.000,4.35,-21.93,-36.02
2020-06-29 10:50:37,1.016,0.425,2.351,7.690,-7.996,-1.038,4.47,-22.00,-36.04
2020-06-29 10:50:37,1.069,0.424,2.323,5.188,-8.789,-1.526,4.58,-22.09,-36.06
2020-06-29 10:50:37,1.086,0.297,2.264,0.549,-6.592,-1.404,4.65,-22.18,-36.08
2020-06-29 10:50:38,1.045,0.164,2.258,-4.456,-2.136,-0.916,4.64,-22.24,-36.10
2020-06-29 10:50:38,0.981,0.024,2.227,-7.507,3.662,-0.183,4.56,-22.23,-36.10
2020-06-29 10:50:38,0.887,-0.065,2.278,-7.385,8.301,0.610,4.44,-22.16,-36.08
2020-06-29 10:50:38,0.824,-0.052,2.300,-4.761,9.094,1.526,4.33,-22.06,-36.06
2020-06-29 10:50:38,0.798,0.063,2.331,-0.610,6.836,1.587,4.26,-21.97,-36.04
2020-06-29 10:50:38,0.824,0.226,2.364,4.517,1.709,1.038,4.27,-21.92,-36.02
2020-06-29 10:50:38,0.938,0.351,2.360,7.751,-4.333,0.000,4.36,-21.94,-36.02
2020-06-29 10:50:38,1.034,0.411,2.333,7.202,-8.362,-1.221,4.48,-22.02,-36.05
2020-06-29 10:50:38,1.069,0.390,2.317,4.395,-8.423,-1.526,4.59,-22.11,-36.07
2020-06-29 10:50:38,1.072,0.273,2.264,-0.183,-5.798,-1.343,4.64,-22.19,-36.09
2020-06-29 10:50:38,1.021,0.149,2.245,-5.188,-1.221,-0.854,4.61,-22.23,-36.10
2020-06-29 10:50:38,0.955,0.045,2.259,-7.690,4.456,0.000,4.53,-22.21,-36.10
2020-06-29 10:50:38,0.870,-0.051,2.276,-7.019,8.789,0.732,4.42,-22.13,-36.08
2020-06-29 10:50:38,0.823,-0.066,2.296,-4.333,8.850,1.465,4.31,-22.03,-36.06
2020-06-29 10:50:38,0.809,0.066,2.342,0.305,6.042,1.526,4.25,-21.95,-36.04
2020-06-29 10:50:38,0.833,0.248,2.347,5.371,0.916,0.916,4.27,-21.91,-36.02
2020-06-29 10:50:38,0.939,0.393,2.377,7.996,-5.127,-0.244,4.37,-21.94,-36.03
2020-06-29 10:50:38,1.040,0.434,2.325,6.897,-8.484,-1.221,4.49,-22.02,-36.05
2020-06-29 10:50:38,1.087,0.373,2.313,3.662,-8.240,-1.526,4.60,-22.12,-36.07
2020-06-29 10:50:38,1.083,0.254,2.252,-1.343,-5.066,-1.221,4.64,-22.19,-36.09
2020-06-29 10:50:38,1.030,0.077,2.236,-5.737,-0.244,-0.732,4.60,-22.23,-36.10
2020-06-29 10:50:38,0.946,0.017,2.264,-7.813,5.188,0.000,4.50,-22.20,-36.10
2020-06-29 10:50:38,0.834,-0.007,2.293,-6.531,9.155,0.977,4.39,-22.12,-36.08
2020-06-29 10:50:38,0.782,-0.016,2.323,-3.479,8.728,1.587,4.30,-22.01,-36.05
2020-06-29 10:50:38,0.816,0.087,2.323,1.038,5.005,1.587,4.25,-21.93,-36.03
2020-06-29 10:50:38,0.869,0.238,2.358,5.676,-0.183,0.732,4.28,-21.90,-36.02
2020-06-29 10:50:38,0.954,0.385,2.371,8.179,-5.920,-0.427,4.38,-21.95,-36.04
2020-06-29 10:50:38,1.033,0.446,2.316,6.531,-8.545,-1.282,4.50,-22.02,-36.05
2020-06-29 10:50:38,1.082,0.385,2.316,3.052,-7.874,-1.465,4.61,-22.12,-36.08
2020-06-29 10:50:38,1.062,0.270,2.261,-2.075,-4.333,-1.038,4.64,-22.19,-36.09
2020-06-29 10:50:38,1.023,0.057,2.231,-6.226,0.732,-0.610,4.60,-22.20,-36.10
2020-06-29 10:50:38,0.962,-0.061,2.250,-8.179,5.798,0.244,4.49,-22.17,-36.09
2020-06-29 10:50:38,0.847,-0.050,2.295,-6.409,9.155,1.160,4.36,-22.09,-36.07
2020-06-29 10:50:38,0.760,0.022,2.330,-2.625,8.484,1.648,4.26,-21.99,-36.05
2020-06-29 10:50:38,0.796,0.152,2.344,2.014,4.150,1.465,4.24,-21.91,-36.02
2020-06-29 10:50:38,0.894,0.269,2.363,6.226,-1.465,0.427,4.30,-21.90,-36.02
2020-06-29 10:50:38,0.988,0.366,2.351,7.996,-6.775,-0.671,4.40,-21.95,-36.04
2020-06-29 10:50:38,1.045,0.403,2.319,6.042,-8.789,-1.465,4.52,-22.04,-36.06
2020-06-29 10:50:38,1.071,0.365,2.288,2.197,-7.324,-1.465,4.60,-22.13,-36.08
2020-06-29 10:50:38,1.043,0.233,2.272,-2.930,-3.601,-1.038,4.62,-22.19,-36.10
2020-06-29 10:50:38,0.986,0.095,2.234,-6.592,1.892,-0.488,4.56,-22.20,-36.10
2020-06-29 10:50:38,0.922,-0.037,2.262,-7.996,6.775,0.366,4.46,-22.14,-36.09
2020-06-29 10:50:38,0.869,-0.100,2.292,-6.104,9.033,1.282,4.34,-22.06,-36.07
2020-06-29 10:50:38,0.797,-0.019,2.305,-2.075,8.057,1.709,4.24,-21.97,-36.04
2020-06-29 10:50:38,0.793,0.169,2.362,2.930,3.357,1.343,4.22,-21.91,-36.02
2020-06-29 10:50:38,0.901,0.328,2.360,6.958,-2.502,0.244,4.28,-21.90,-36.02
2020-06-29 10:50:38,1.008,0.415,2.354,7.751,-7.446,-0.793,4.41,-21.96,-36.04
2020-06-29 10:50:38,1.072,0.397,2.325,5.432,-8.789,-1.465,4.52,-22.05,-36.06
2020-06-29 10:50:38,1.075,0.312,2.257,1.343,-6.775,-1.404,4.59,-22.14,-36.08
2020-06-29 10:50:38,1.047,0.174,2.270,-3.723,-2.808,-0.977,4.60,-22.20,-36.10
2020-06-29 10:50:38,0.990,0.043,2.226,-7.019,2.869,-0.305,4.53,-22.20,-36.10
2020-06-29 10:50:38,0.892,-0.027,2.272,-7.629,7.690,0.488,4.41,-22.14,-36.08
2020-06-29 10:50:38,0.836,-0.047,2.311,-5.371,9.094,1.343,4.30,-22.04,-36.06
2020-06-29 10:50:38,0.800,0.017,2.314,-1.465,7.507,1.587,4.22,-21.95,-36.04
2020-06-29 10:50:38,0.817,0.164,2.355,3.723,2.563,1.160,4.21,-21.90,-36.02
2020-06-29 10:50:38,0.922,0.318,2.358,7.324,-3.418,0.000,4.28,-21.90,-36.03
2020-06-29 10:50:38,1.012,0.423,2.350,7.568,-7.874,-1.038,4.40,-21.97,-36.05
2020-06-29 10:50:38,1.062,0.428,2.323,5.127,-8.545,-1.465,4.52,-22.07,-36.07
2020-06-29 10:50:38,1.074,0.305,2.269,0.549,-6.470,-1.343,4.59,-22.15,-36.09
2020-06-29 10:50:38,1.037,0.179,2.265,-4.517,-2.136,-0.854,4.58,-22.20,-36.10
2020-06-29 10:50:38,0.980,0.028,2.227,-7.507,3.540,0.000,4.50,-22.19,-36.10
2020-06-29 10:50:38,0.894,-0.068,2.276,-7.507,8.057,0.671,4.38,-22.12,-36.08
2020-06-29 10:50:38,0.827,-0.051,2.298,-4.944,8.911,1.526,4.27,-22.03,-36.06
2020-06-29 10:50:38,0.792,0.060,2.331,-0.793,6.775,1.587,4.20,-21.94,-36.04
2020-06-29 10:50:38,0.820,0.224,2.362,4.395,1.709,1.038,4.21,-21.90,-36.02
2020-06-29 10:50:38,0.938,0.351,2.358,7.629,-4.272,0.000,4.30,-21.91,-36.02
2020-06-29 10:50:39,1.033,0.408,2.339,7.202,-8.240,-1.160,4.42,-21.98,-36.05
2020-06-29 10:50:39,1.064,0.393,2.320,4.639,-8.362,-1.465,4.53,-22.08,-36.07
2020-06-29 10:50:39,1.066,0.274,2.259,0.000,-5.920,-1.343,4.58,-22.16,-36.09
2020-06-29 10:50:39,1.020,0.167,2.250,-4.944,-1.343,-0.854,4.56,-22.20,-36.10
2020-06-29 10:50:39,0.955,0.048,2.258,-7.568,4.272,-0.183,4.48,-22.18,-36.10
2020-06-29 10:50:39,0.881,-0.059,2.263,-7.141,8.484,0.732,4.37,-22.10,-36.08
2020-06-29 10:50:39,0.834,-0.066,2.301,-4.333,8.789,1.526,4.26,-22.01,-36.06
2020-06-29 10:50:39,0.810,0.058,2.332,0.000,6.104,1.587,4.20,-21.93,-36.04
2020-06-29 10:50:39,0.832,0.242,2.350,5.188,1.038,1.038,4.21,-21.90,-36.02
2020-06-29 10:50:39,0.941,0.385,2.370,7.751,-4.944,-0.183,4.31,-21.92,-36.03
2020-06-29 10:50:39,1.045,0.427,2.333,6.897,-8.484,-1.160,4.43,-21.99,-36.05
2020-06-29 10:50:39,1.080,0.376,2.303,3.967,-8.179,-1.587,4.54,-22.09,-36.07
2020-06-29 10:50:39,1.083,0.238,2.259,-0.977,-5.310,-1.343,4.59,-22.17,-36.09
2020-06-29 10:50:39,1.021,0.098,2.237,-5.554,-0.427,-0.916,4.55,-22.21,-36.10
2020-06-29 10:50:39,0.933,0.038,2.261,-7.813,5.005,0.000,4.45,-22.18,-36.10
2020-06-29 10:50:39,0.844,-0.017,2.290,-6.714,8.972,0.854,4.35,-22.10,-36.08
2020-06-29 10:50:39,0.802,-0.045,2.313,-3.845,8.728,1.526,4.25,-21.99,-36.06
2020-06-29 10:50:39,0.825,0.062,2.315,0.488,5.249,1.526,4.19,-21.91,-36.04
2020-06-29 10:50:39,0.856,0.235,2.370,5.493,0.305,0.793,4.22,-21.89,-36.03
2020-06-29 10:50:39,0.945,0.388,2.365,7.996,-5.432,-0.305,4.31,-21.92,-36.04
2020-06-29 10:50:39,1.042,0.442,2.323,6.653,-8.423,-1.221,4.44,-22.00,-36.06
2020-06-29 10:50:39,1.082,0.384,2.315,3.174,-7.874,-1.526,4.54,-22.09,-36.08
2020-06-29 10:50:39,1.082,0.246,2.253,-1.709,-4.639,-1.160,4.58,-22.16,-36.10
2020-06-29 10:50:39,1.035,0.042,2.219,-5.737,0.549,-0.671,4.54,-22.19,-36.10
2020-06-29 10:50:39,0.945,-0.024,2.276,-8.057,5.554,0.000,4.42,-22.16,-36.10
2020-06-29 10:50:39,0.825,-0.008,2.291,-6.226,9.216,1.038,4.31,-22.08,-36.08
2020-06-29 10:50:39,0.768,0.016,2.331,-2.625,8.606,1.648,4.22,-21.97,-36.05
2020-06-29 10:50:39,0.808,0.109,2.340,1.465,4.517,1.526,4.19,-21.89,-36.04
2020-06-29 10:50:39,0.889,0.247,2.349,6.165,-0.854,0.671,4.24,-21.87,-36.02
2020-06-29 10:50:39,0.967,0.383,2.358,8.240,-6.287,-0.488,4.34,-21.92,-36.04
2020-06-29 10:50:39,1.039,0.434,2.330,6.348,-8.606,-1.282,4.46,-22.01,-36.06
2020-06-29 10:50:39,1.070,0.389,2.292,2.747,-7.446,-1.465,4.55,-22.09,-36.08
2020-06-29 10:50:39,1.049,0.255,2.284,-2.563,-4.089,-1.099,4.59,-22.16,-36.10
2020-06-29 10:50:39,1.000,0.080,2.229,-6.409,1.465,-0.549,4.54,-22.17,-36.10
2020-06-29 10:50:39,0.931,-0.050,2.259,-7.874,6.287,0.305,4.43,-22.13,-36.09
2020-06-29 10:50:39,0.861,-0.084,2.289,-6.287,8.972,1.160,4.31,-22.04,-36.07
2020-06-29 10:50:39,0.784,-0.002,2.316,-2.380,8.118,1.587,4.21,-21.95,-36.05
2020-06-29 10:50:39,0.786,0.174,2.353,2.869,3.784,1.404,4.19,-21.88,-36.03
2020-06-29 10:50:39,0.898,0.309,2.359,6.653,-2.075,0.427,4.26,-21.87,-36.02
2020-06-29 10:50:39,1.001,0.392,2.353,7.935,-7.080,-0.732,4.37,-21.92,-36.04
2020-06-29 10:50:39,1.058,0.398,2.310,5.798,-8.850,-1.343,4.49,-22.02,-36.06
2020-06-29 10:50:39,1.075,0.337,2.275,1.892,-7.446,-1.465,4.57,-22.12,-36.08
2020-06-29 10:50:39,1.047,0.193,2.270,-3.113,-3.174,-1.038,4.58,-22.18,-36.10
2020-06-29 10:50:39,0.986,0.062,2.228,-6.958,2.258,-0.366,4.52,-22.18,-36.10
2020-06-29 10:50:39,0.907,-0.021,2.271,-7.507,7.019,0.427,4.41,-22.13,-36.09
2020-06-29 10:50:39,0.849,-0.068,2.300,-5.615,9.033,1.343,4.30,-22.03,-36.07
2020-06-29 10:50:39,0.807,-0.012,2.306,-1.526,7.690,1.648,4.21,-21.94,-36.04
2020-06-29 10:50:39,0.809,0.158,2.355,3.479,3.113,1.282,4.20,-21.88,-36.02
2020-06-29 10:50:39,0.911,0.322,2.355,7.263,-2.869,0.305,4.26,-21.88,-36.02
2020-06-29 10:50:39,1.007,0.432,2.348,8.057,-7.507,-0.854,4.38,-21.95,-36.04
2020-06-29 10:50:39,1.068,0.419,2.314,5.432,-8.667,-1.404,4.50,-22.04,-36.06
2020-06-29 10:50:39,1.083,0.301,2.270,0.854,-6.775,-1.404,4.58,-22.13,-36.08
2020-06-29 10:50:39,1.039,0.176,2.253,-3.967,-2.380,-0.977,4.58,-22.19,-36.10
2020-06-29 10:50:39,0.996,0.011,2.224,-7.263,3.174,-0.244,4.50,-22.18,-36.10
2020-06-29 10:50:39,0.905,-0.068,2.271,-7.446,7.874,0.549,4.38,-22.12,-36.08
2020-06-29 10:50:39,0.828,-0.039,2.306,-4.883,9.155,1.465,4.26,-22.03,-36.06
2020-06-29 10:50:39,0.793,0.053,2.325,-0.671,7.263,1.648,4.20,-21.93,-36.04
2020-06-29 10:50:39,0.817,0.201,2.365,4.272,2.319,1.160,4.20,-21.88,-36.02
2020-06-29 10:50:39,0.935,0.329,2.349,7.385,-3.845,0.000,4.28,-21.89,-36.02
2020-06-29 10:50:39,1.029,0.408,2.348,7.507,-7.996,-1.099,4.40,-21.97,-36.05
2020-06-29 10:50:39,1.062,0.409,2.305,4.700,-8.423,-1.526,4.51,-22.06,-36.07
2020-06-29 10:50:39,1.066,0.283,2.269,0.000,-6.165,-1.343,4.58,-22.14,-36.08
2020-06-29 10:50:39,1.021,0.176,2.259,-4.822,-1.465,-0.854,4.55,-22.19,-36.10
2020-06-29 10:50:39,0.963,0.036,2.245,-7.629,4.028,0.000,4.48,-22.16,-36.10
2020-06-29 10:50:39,0.887,-0.076,2.273,-7.202,8.423,0.732,4.37,-22.09,-36.08
2020-06-29 10:50:39,0.830,-0.063,2.300,-4.395,8.911,1.526,4.25,-22.00,-36.06
2020-06-29 10:50:39,0.797,0.063,2.332,0.000,6.348,1.587,4.19,-21.92,-36.04
2020-06-29 10:50:39,0.819,0.250,2.363,5.127,1.221,0.977,4.20,-21.87,-36.02
2020-06-29 10:50:39,0.944,0.382,2.369,8.057,-5.005,-0.183,4.30,-21.90,-36.03
2020-06-29 10:50:39,1.052,0.421,2.327,7.263,-8.423,-1.160,4.43,-21.97,-36.05
2020-06-29 10:50:39,1.078,0.381,2.309,4.089,-8.362,-1.465,4.54,-22.08,-36.07
2020-06-29 10:50:39,1.081,0.244,2.265,-0.610,-5.493,-1.282,4.59,-22.15,-36.09
2020-06-29 10:50:39,1.020,0.110,2.239,-5.310,-0.549,-0.732,4.55,-22.19,-36.10
2020-06-29 10:50:39,0.931,0.046,2.271,-7.751,4.822,0.000,4.46,-22.16,-36.09
2020-06-29 10:50:39,0.845,-0.024,2.283,-6.775,8.850,0.916,4.35,-22.08,-36.07
2020-06-29 10:50:39,0.815,-0.049,2.305,-3.723,8.606,1.587,4.26,-21.98,-36.05
2020-06-29 10:50:39,0.820,0.060,2.328,0.671,5.493,1.587,4.20,-21.90,-36.03
2020-06-29 10:50:39,0.850,0.243,2.359,5.554,0.183,0.793,4.22,-21.87,-36.02
2020-06-29 10:50:39,0.949,0.397,2.362,8.179,-5.554,-0.366,4.32,-21.91,-36.03
2020-06-29 10:50:39,1.046,0.446,2.326,6.775,-8.728,-1.282,4.45,-21.99,-36.05
2020-06-29 10:50:39,1.086,0.383,2.313,3.296,-8.179,-1.648,4.56,-22.09,-36.07
2020-06-29 10:50:39,1.082,0.238,2.246,-1.587,-4.761,-1.221,4.60,-22.16,-36.09
2020-06-29 10:50:39,1.035,0.037,2.228,-5.920,0.305,-0.671,4.55,-22.19,-36.10
2020-06-29 10:50:39,0.941,-0.021,2.263,-7.874,5.615,0.000,4.44,-22.16,-36.10
2020-06-29 10:50:39,0.826,-0.010,2.291,-6.287,9.338,1.038,4.32,-22.08,-36.07
2020-06-29 10:50:39,0.775,0.007,2.332,-2.747,8.728,1.587,4.24,-21.97,-36.05
2020-06-29 10:50:39,0.813,0.106,2.333,1.587,4.639,1.465,4.21,-21.89,-36.03
2020-06-29 10:50:39,0.888,0.245,2.362,6.226,-0.854,0.610,4.25,-21.87,-36.02
2020-06-29 10:50:39,0.966,0.375,2.360,8.240,-6.104,-0.549,4.35,-21.92,-36.04
2020-06-29 10:50:39,1.043,0.436,2.313,6.348,-8.667,-1.404,4.47,-22.01,-36.06
2020-06-29 10:50:39,1.075,0.393,2.307,2.747,-7.690,-1.526,4.57,-22.10,-36.08
2020-06-29 10:50:39,1.054,0.245,2.268,-2.258,-3.967,-1.160,4.60,-22.16,-36.10
2020-06-29 10:50:39,1.009,0.062,2.227,-6.287,1.465,-0.549,4.56,-22.17,-36.10
2020-06-29 10:50:39,0.932,-0.056,2.263,-7.874,6.348,0.305,4.44,-22.13,-36.10
2020-06-29 10:50:39,0.848,-0.074,2.289,-5.981,9.277,1.221,4.32,-22.04,-36.07
2020-06-29 10:50:39,0.774,0.008,2.322,-1.953,8.423,1.587,4.23,-21.95,-36.05
2020-06-29 10:50:39,0.792,0.170,2.355,2.747,3.906,1.343,4.21,-21.87,-36.03
2020-06-29 10:50:39,0.901,0.314,2.365,6.714,-1.953,0.366,4.27,-21.86,-36.03
2020-06-29 10:50:39,1.002,0.393,2.351,8.118,-7.019,-0.793,4.39,-21.92,-36.04
2020-06-29 10:50:39,1.067,0.402,2.308,5.798,-8.789,-1.465,4.51,-22.01,-36.07
2020-06-29 10:50:39,1.064,0.340,2.285,1.648,-7.141,-1.587,4.59,-22.10,-36.09
2020-06-29 10:50:39,1.046,0.199,2.256,-3.235,-3.174,-1.160,4.60,-22.16,-36.11
2020-06-29 10:50:39,1.004,0.041,2.229,-7.019,2.319,-0.488,4.54,-22.16,-36.11
2020-06-29 10:50:39,0.909,-0.041,2.286,-7.629,7.141,0.366,4.42,-22.12,-36.10
2020-06-29 10:50:39,0.840,-0.041,2.295,-5.371,9.033,1.282,4.31,-22.02,-36.07
2020-06-29 10:50:39,0.793,0.012,2.313,-1.526,7.629,1.648,4.23,-21.93,-36.05
2020-06-29 10:50:39,0.817,0.163,2.362,3.723,2.869,1.221,4.22,-21.87,-36.04
2020-06-29 10:50:39,0.918,0.319,2.343,7.263,-3.052,0.244,4.29,-21.87,-36.04
2020-06-29 10:50:39,1.013,0.417,2.363,7.751,-7.629,-0.977,4.41,-21.94,-36.05
