Record Time,ax,ay,az,wx,wy,wz,AngleX,AngleY,AngleZ
2020-06-29 10:21:03,-0.075,-0.209,2.956,0.183,0.244,0.000,-4.11,1.56,-0.01
2020-06-29 10:21:03,-0.093,-0.228,2.940,0.244,0.000,0.000,-4.11,1.56,-0.01
2020-06-29 10:21:03,-0.091,-0.177,2.948,0.000,0.000,0.305,-4.11,1.56,-0.01
2020-06-29 10:21:03,-0.089,-0.180,2.942,0.244,0.000,0.000,-4.10,1.57,-0.01
2020-06-29 10:21:03,-0.069,-0.166,2.942,0.000,0.000,0.305,-4.10,1.57,-0.01
2020-06-29 10:21:03,-0.076,-0.224,2.921,0.000,-0.244,0.000,-4.09,1.56,-0.01
2020-06-29 10:21:03,-0.063,-0.230,2.961,-0.366,-0.183,0.000,-4.10,1.56,-0.01
2020-06-29 10:21:03,-0.097,-0.223,2.951,-0.427,0.000,0.000,-4.10,1.55,-0.01
2020-06-29 10:21:03,-0.092,-0.213,2.949,0.000,0.549,-0.183,-4.10,1.57,-0.01
2020-06-29 10:21:03,-0.083,-0.219,2.951,0.000,0.305,0.000,-4.10,1.57,-0.01
2020-06-29 10:21:03,-0.069,-0.213,2.956,0.183,0.183,0.183,-4.10,1.57,-0.01
2020-06-29 10:21:03,-0.083,-0.217,2.946,0.000,0.000,0.000,-4.10,1.57,-0.01
2020-06-29 10:21:03,-0.104,-0.198,2.939,0.000,0.000,0.183,-4.11,1.57,-0.01
2020-06-29 10:21:03,-0.087,-0.174,2.933,0.000,0.000,0.183,-4.10,1.57,-0.01
2020-06-29 10:21:03,-0.059,-0.179,2.939,-0.183,-0.244,0.000,-4.10,1.57,-0.01
2020-06-29 10:21:03,-0.067,-0.220,2.930,-0.244,-0.183,0.000,-4.09,1.57,-0.01
2020-06-29 10:21:03,-0.073,-0.238,2.957,-0.183,-0.183,0.000,-4.10,1.56,-0.01
2020-06-29 10:21:03,-0.086,-0.218,2.952,-0.366,0.000,0.000,-4.11,1.56,-0.01
2020-06-29 10:21:03,-0.076,-0.223,2.962,0.305,0.366,-0.183,-4.10,1.57,-0.01
2020-06-29 10:21:03,-0.083,-0.221,2.950,0.000,0.427,0.000,-4.11,1.57,-0.01
2020-06-29 10:21:03,-0.069,-0.231,2.951,0.305,0.000,0.183,-4.11,1.57,-0.01
2020-06-29 10:21:03,-0.083,-0.217,2.938,0.000,-0.244,0.183,-4.11,1.57,-0.01
2020-06-29 10:21:03,-0.101,-0.196,2.948,0.000,-0.244,0.183,-4.11,1.56,-0.01
2020-06-29 10:21:03,-0.092,-0.173,2.929,0.000,0.000,0.244,-4.11,1.57,-0.01
2020-06-29 10:21:03,-0.070,-0.187,2.930,0.000,-0.183,0.000,-4.10,1.57,-0.01
2020-06-29 10:21:03,-0.066,-0.212,2.933,0.000,-0.183,0.000,-4.10,1.57,-0.01
2020-06-29 10:21:03,-0.079,-0.241,2.955,0.000,-0.183,-0.183,-4.10,1.56,-0.01
2020-06-29 10:21:03,-0.103,-0.213,2.944,-0.183,0.244,0.000,-4.10,1.56,-0.01
2020-06-29 10:21:03,-0.075,-0.210,2.967,0.366,0.366,-0.183,-4.10,1.57,-0.01
2020-06-29 10:21:03,-0.072,-0.224,2.957,0.305,0.366,0.000,-4.10,1.57,-0.01
2020-06-29 10:21:03,-0.076,-0.228,2.951,0.000,0.000,0.000,-4.10,1.57,-0.01
2020-06-29 10:21:03,-0.095,-0.219,2.952,0.000,-0.183,0.183,-4.10,1.57,-0.01
2020-06-29 10:21:03,-0.085,-0.187,2.955,-0.244,-0.244,0.000,-4.11,1.57,-0.01
2020-06-29 10:21:03,-0.081,-0.166,2.931,0.000,0.000,0.183,-4.10,1.57,-0.01
2020-06-29 10:21:03,-0.072,-0.182,2.932,0.000,-0.183,0.000,-4.09,1.57,-0.01
2020-06-29 10:21:03,-0.065,-0.210,2.936,0.000,0.000,0.000,-4.09,1.57,-0.01
2020-06-29 10:21:03,-0.070,-0.223,2.943,-0.183,0.000,0.000,-4.09,1.56,-0.01
2020-06-29 10:21:03,-0.109,-0.225,2.942,0.000,0.244,-0.183,-4.09,1.56,-0.01
2020-06-29 10:21:03,-0.071,-0.203,2.963,0.000,0.427,0.244,-4.09,1.57,-0.01
2020-06-29 10:21:03,-0.068,-0.235,2.948,0.244,0.183,0.000,-4.09,1.57,-0.01
2020-06-29 10:21:03,-0.071,-0.234,2.950,0.000,0.000,0.000,-4.09,1.57,-0.01
2020-06-29 10:21:03,-0.099,-0.216,2.957,0.000,-0.244,0.244,-4.10,1.57,-0.01
2020-06-29 10:21:03,-0.084,-0.195,2.947,-0.183,0.000,0.244,-4.10,1.57,-0.01
2020-06-29 10:21:03,-0.083,-0.180,2.929,-0.183,0.000,0.000,-4.10,1.57,-0.01
2020-06-29 10:21:03,-0.072,-0.177,2.924,0.000,0.000,0.000,-4.09,1.57,-0.01
2020-06-29 10:21:03,-0.071,-0.224,2.946,0.000,0.000,-0.183,-4.09,1.57,-0.01
2020-06-29 10:21:03,-0.078,-0.213,2.940,-0.244,0.000,0.000,-4.09,1.57,-0.01
2020-06-29 10:21:03,-0.104,-0.219,2.946,0.183,0.183,-0.183,-4.09,1.57,-0.01
2020-06-29 10:21:03,-0.066,-0.200,2.968,0.244,0.427,0.244,-4.09,1.58,-0.01
2020-06-29 10:21:03,-0.076,-0.248,2.947,0.183,0.000,0.000,-4.09,1.57,-0.01
2020-06-29 10:21:03,-0.076,-0.224,2.955,0.000,0.000,0.000,-4.09,1.57,-0.01
2020-06-29 10:21:03,-0.092,-0.235,2.960,0.000,-0.427,0.244,-4.10,1.57,-0.01
2020-06-29 10:21:03,-0.090,-0.181,2.950,0.000,-0.183,0.183,-4.10,1.57,-0.01
2020-06-29 10:21:03,-0.092,-0.188,2.933,0.000,0.000,0.000,-4.09,1.57,-0.01
2020-06-29 10:21:03,-0.070,-0.178,2.923,0.000,0.000,0.000,-4.09,1.57,-0.01
2020-06-29 10:21:03,-0.069,-0.219,2.942,0.000,0.000,0.000,-4.09,1.57,-0.01
2020-06-29 10:21:03,-0.097,-0.208,2.942,0.000,0.000,-0.183,-4.09,1.57,-0.01
2020-06-29 10:21:03,-0.094,-0.215,2.943,0.183,0.366,-0.183,-4.08,1.57,-0.01
2020-06-29 10:21:03,-0.066,-0.197,2.966,0.305,0.183,0.000,-4.08,1.58,-0.01
2020-06-29 10:21:04,-0.069,-0.236,2.956,0.000,0.000,0.183,-4.08,1.57,-0.01
2020-06-29 10:21:04,-0.074,-0.229,2.961,0.000,-0.366,0.000,-4.08,1.57,-0.01
2020-06-29 10:21:04,-0.086,-0.239,2.952,-0.183,-0.183,0.244,-4.09,1.57,-0.01
2020-06-29 10:21:04,-0.082,-0.179,2.962,-0.183,-0.244,0.000,-4.10,1.57,-0.01
2020-06-29 10:21:04,-0.079,-0.179,2.931,0.000,0.000,0.000,-4.09,1.57,-0.01
2020-06-29 10:21:04,-0.071,-0.192,2.933,0.000,0.000,-0.183,-4.08,1.56,-0.01
2020-06-29 10:21:04,-0.070,-0.208,2.938,0.000,0.000,0.000,-4.08,1.56,-0.01
2020-06-29 10:21:04,-0.095,-0.214,2.941,0.000,0.000,-0.183,-4.08,1.56,-0.01
2020-06-29 10:21:04,-0.094,-0.206,2.931,0.183,0.427,0.305,-4.08,1.57,-0.01
2020-06-29 10:21:04,-0.071,-0.226,2.955,0.305,0.000,0.000,-4.08,1.57,-0.01
2020-06-29 10:21:04,-0.069,-0.230,2.943,0.000,0.000,0.244,-4.08,1.57,-0.01
2020-06-29 10:21:04,-0.069,-0.249,2.959,-0.183,-0.488,0.183,-4.08,1.56,-0.01
2020-06-29 10:21:04,-0.098,-0.233,2.944,-0.183,0.000,0.244,-4.09,1.56,-0.01
2020-06-29 10:21:04,-0.084,-0.194,2.963,-0.244,-0.183,0.000,-4.10,1.56,-0.01
2020-06-29 10:21:04,-0.081,-0.162,2.929,0.000,0.000,0.000,-4.10,1.56,-0.01
2020-06-29 10:21:04,-0.071,-0.209,2.940,0.000,0.000,-0.244,-4.09,1.56,-0.01
2020-06-29 10:21:04,-0.088,-0.202,2.934,0.000,0.000,-0.183,-4.09,1.56,-0.01
2020-06-29 10:21:04,-0.089,-0.213,2.940,0.000,0.000,0.000,-4.09,1.56,-0.01
2020-06-29 10:21:04,-0.091,-0.202,2.947,0.183,0.244,0.000,-4.08,1.57,-0.01
2020-06-29 10:21:04,-0.070,-0.228,2.965,0.183,0.244,0.000,-4.08,1.57,-0.01
2020-06-29 10:21:04,-0.078,-0.229,2.953,0.000,0.000,0.183,-4.08,1.57,-0.01
2020-06-29 10:21:04,-0.070,-0.270,2.966,0.000,-0.366,0.183,-4.09,1.56,-0.01
2020-06-29 10:21:04,-0.097,-0.217,2.959,-0.366,-0.427,0.183,-4.10,1.55,-0.01
2020-06-29 10:21:04,-0.083,-0.212,2.962,0.000,0.000,0.000,-4.10,1.56,-0.01
2020-06-29 10:21:04,-0.087,-0.179,2.936,-0.183,0.000,0.000,-4.10,1.56,-0.01
2020-06-29 10:21:04,-0.063,-0.211,2.943,0.305,0.183,0.000,-4.09,1.56,-0.01
2020-06-29 10:21:04,-0.089,-0.207,2.939,0.000,0.000,-0.305,-4.09,1.56,-0.01
2020-06-29 10:21:04,-0.091,-0.200,2.933,0.244,0.305,0.000,-4.09,1.57,-0.01
2020-06-29 10:21:04,-0.083,-0.194,2.953,0.366,0.000,0.000,-4.09,1.57,-0.01
2020-06-29 10:21:04,-0.052,-0.220,2.952,0.183,0.183,0.000,-4.08,1.57,-0.01
2020-06-29 10:21:04,-0.066,-0.234,2.951,0.000,-0.366,0.000,-4.08,1.56,-0.01
2020-06-29 10:21:04,-0.064,-0.250,2.966,0.000,-0.244,0.000,-4.09,1.55,-0.01
2020-06-29 10:21:04,-0.083,-0.229,2.962,-0.427,-0.366,0.000,-4.10,1.55,-0.01
2020-06-29 10:21:04,-0.082,-0.193,2.951,0.000,0.183,0.000,-4.10,1.55,-0.01
2020-06-29 10:21:04,-0.083,-0.190,2.948,0.000,0.000,-0.183,-4.10,1.55,-0.01
2020-06-29 10:21:04,-0.070,-0.206,2.934,0.183,0.305,0.000,-4.09,1.55,-0.01
2020-06-29 10:21:04,-0.086,-0.218,2.929,0.000,0.000,-0.244,-4.09,1.55,-0.01
2020-06-29 10:21:04,-0.103,-0.193,2.935,0.000,0.000,0.183,-4.09,1.55,-0.01
2020-06-29 10:21:04,-0.083,-0.210,2.960,0.305,0.244,0.000,-4.09,1.56,-0.01
2020-06-29 10:21:04,-0.076,-0.217,2.932,0.000,0.000,0.183,-4.09,1.56,-0.01
2020-06-29 10:21:04,-0.066,-0.256,2.951,0.000,-0.366,0.244,-4.09,1.55,-0.01
2020-06-29 10:21:04,-0.077,-0.236,2.968,-0.305,-0.427,0.244,-4.10,1.55,-0.01
2020-06-29 10:21:04,-0.090,-0.245,2.968,-0.305,0.000,0.000,-4.11,1.55,-0.01
2020-06-29 10:21:04,-0.095,-0.189,2.944,-0.244,0.000,0.000,-4.11,1.55,-0.01
2020-06-29 10:21:04,-0.072,-0.203,2.957,0.244,0.244,-0.183,-4.11,1.55,-0.01
2020-06-29 10:21:04,-0.079,-0.199,2.951,0.000,0.000,-0.183,-4.11,1.55,-0.01
2020-06-29 10:21:04,-0.089,-0.217,2.929,0.183,0.244,0.000,-4.10,1.55,-0.01
2020-06-29 10:21:04,-0.106,-0.188,2.940,0.000,0.000,0.000,-4.10,1.55,-0.01
2020-06-29 10:21:04,-0.072,-0.192,2.959,0.183,0.366,0.000,-4.10,1.57,-0.01
2020-06-29 10:21:04,-0.078,-0.219,2.938,0.000,0.000,0.000,-4.09,1.57,-0.01
2020-06-29 10:21:04,-0.058,-0.249,2.949,0.000,-0.305,0.183,-4.10,1.56,-0.01
2020-06-29 10:21:04,-0.078,-0.241,2.963,-0.366,-0.549,0.000,-4.11,1.55,-0.01
2020-06-29 10:21:04,-0.083,-0.229,2.973,-0.183,0.000,0.000,-4.11,1.55,-0.01
2020-06-29 10:21:04,-0.095,-0.209,2.941,-0.183,0.000,0.000,-4.12,1.55,-0.01
2020-06-29 10:21:04,-0.070,-0.196,2.940,0.366,0.305,0.000,-4.11,1.55,-0.01
2020-06-29 10:21:04,-0.069,-0.215,2.944,0.183,0.000,-0.244,-4.11,1.55,-0.01
2020-06-29 10:21:04,-0.090,-0.194,2.936,0.000,0.000,0.366,-4.11,1.55,-0.01
2020-06-29 10:21:04,-0.101,-0.212,2.931,0.427,0.183,0.000,-4.10,1.55,-0.01
2020-06-29 10:21:04,-0.070,-0.186,2.940,0.000,0.000,0.183,-4.10,1.56,-0.01
2020-06-29 10:21:04,-0.058,-0.225,2.947,0.000,-0.244,0.244,-4.10,1.55,-0.01
2020-06-29 10:21:04,-0.061,-0.242,2.948,-0.183,-0.244,0.183,-4.10,1.55,-0.01
2020-06-29 10:21:04,-0.086,-0.268,2.962,-0.366,-0.305,0.000,-4.11,1.54,-0.01
2020-06-29 10:21:04,-0.085,-0.211,2.970,-0.305,0.000,0.000,-4.13,1.54,-0.01
2020-06-29 10:21:04,-0.090,-0.218,2.950,0.000,0.244,-0.183,-4.13,1.55,-0.01
2020-06-29 10:21:04,-0.084,-0.199,2.948,0.183,0.427,0.000,-4.13,1.55,-0.01
2020-06-29 10:21:04,-0.079,-0.219,2.941,0.305,0.183,-0.305,-4.12,1.55,-0.01
2020-06-29 10:21:04,-0.097,-0.188,2.943,0.000,0.000,0.000,-4.12,1.55,-0.01
2020-06-29 10:21:04,-0.105,-0.205,2.933,0.366,0.305,0.183,-4.11,1.56,-0.01
2020-06-29 10:21:04,-0.081,-0.185,2.945,0.000,0.000,0.000,-4.11,1.57,-0.01
2020-06-29 10:21:04,-0.062,-0.220,2.944,0.000,-0.305,0.183,-4.10,1.57,-0.01
2020-06-29 10:21:04,-0.062,-0.235,2.958,-0.244,-0.488,0.183,-4.11,1.55,-0.01
2020-06-29 10:21:04,-0.084,-0.268,2.968,-0.366,-0.183,0.000,-4.11,1.55,-0.01
2020-06-29 10:21:04,-0.092,-0.215,2.965,-0.427,0.000,0.000,-4.13,1.55,-0.01
2020-06-29 10:21:04,-0.075,-0.205,2.953,0.244,0.366,0.000,-4.13,1.55,-0.01
2020-06-29 10:21:04,-0.071,-0.208,2.957,0.183,0.244,-0.244,-4.13,1.56,-0.01
2020-06-29 10:21:04,-0.083,-0.206,2.941,0.000,0.183,0.000,-4.13,1.56,-0.01
2020-06-29 10:21:04,-0.096,-0.197,2.935,0.244,0.000,0.000,-4.12,1.56,-0.01
2020-06-29 10:21:04,-0.082,-0.183,2.943,0.000,0.000,0.183,-4.12,1.56,-0.01
2020-06-29 10:21:04,-0.064,-0.188,2.945,0.000,0.000,0.000,-4.11,1.56,-0.01
2020-06-29 10:21:04,-0.068,-0.223,2.930,-0.183,0.000,0.000,-4.11,1.56,-0.01
2020-06-29 10:21:04,-0.057,-0.252,2.958,-0.305,-0.488,0.000,-4.11,1.55,-0.01
2020-06-29 10:21:04,-0.079,-0.257,2.963,-0.366,0.000,0.000,-4.13,1.54,-0.01
2020-06-29 10:21:04,-0.098,-0.235,2.958,-0.244,0.000,0.000,-4.14,1.54,-0.01
2020-06-29 10:21:04,-0.083,-0.202,2.950,0.000,0.488,0.000,-4.14,1.55,-0.01
2020-06-29 10:21:04,-0.063,-0.226,2.955,0.366,0.244,-0.183,-4.14,1.55,-0.01
2020-06-29 10:21:04,-0.094,-0.210,2.938,0.000,0.000,0.183,-4.14,1.55,-0.01
2020-06-29 10:21:04,-0.103,-0.205,2.938,0.366,0.000,0.000,-4.13,1.55,-0.01
2020-06-29 10:21:04,-0.087,-0.175,2.943,0.000,0.000,0.183,-4.13,1.56,-0.01
2020-06-29 10:21:04,-0.087,-0.175,2.943,0.000,0.000,0.183,-4.13,1.56,-0.01
2020-06-29 10:21:04,-0.063,-0.190,2.937,0.000,0.000,0.183,-4.12,1.57,-0.01
2020-06-29 10:21:04,-0.073,-0.204,2.936,0.000,-0.244,0.000,-4.11,1.56,-0.01
2020-06-29 10:21:04,-0.061,-0.251,2.961,-0.244,-0.488,0.000,-4.11,1.55,-0.01
2020-06-29 10:21:04,-0.087,-0.236,2.957,-0.305,-0.183,0.000,-4.13,1.54,-0.01
2020-06-29 10:21:04,-0.086,-0.214,2.960,0.000,0.000,0.000,-4.13,1.55,-0.01
2020-06-29 10:21:04,-0.089,-0.197,2.960,0.183,0.488,-0.244,-4.13,1.55,-0.01
2020-06-29 10:21:04,-0.071,-0.217,2.954,0.183,0.305,0.000,-4.12,1.56,-0.01
2020-06-29 10:21:04,-0.100,-0.201,2.929,0.183,0.000,0.000,-4.12,1.55,-0.01
2020-06-29 10:21:04,-0.087,-0.188,2.947,0.305,0.000,0.000,-4.11,1.56,-0.01
2020-06-29 10:21:04,-0.098,-0.168,2.936,0.000,-0.183,0.000,-4.11,1.56,-0.01
2020-06-29 10:21:04,-0.071,-0.193,2.926,0.000,0.000,0.305,-4.10,1.57,-0.01
2020-06-29 10:21:05,-0.071,-0.212,2.929,-0.183,-0.488,0.000,-4.10,1.55,-0.01
2020-06-29 10:21:05,-0.055,-0.244,2.965,-0.305,-0.305,0.000,-4.10,1.55,-0.01
2020-06-29 10:21:05,-0.096,-0.249,2.956,-0.305,0.000,0.000,-4.11,1.55,-0.01
2020-06-29 10:21:05,-0.077,-0.213,2.959,0.000,0.305,0.000,-4.12,1.55,-0.01
2020-06-29 10:21:05,-0.071,-0.217,2.964,0.244,0.244,0.000,-4.12,1.55,-0.01
2020-06-29 10:21:05,-0.072,-0.219,2.959,0.000,0.366,0.244,-4.12,1.55,-0.01
2020-06-29 10:21:05,-0.092,-0.224,2.934,0.000,0.000,0.000,-4.12,1.55,-0.01
2020-06-29 10:21:05,-0.080,-0.188,2.949,0.000,0.000,0.183,-4.12,1.55,-0.01
2020-06-29 10:21:05,-0.089,-0.183,2.942,0.000,0.000,0.000,-4.12,1.55,-0.01
2020-06-29 10:21:05,-0.067,-0.177,2.931,0.000,0.000,0.000,-4.11,1.56,-0.01
2020-06-29 10:21:05,-0.072,-0.238,2.924,-0.183,-0.366,0.000,-4.11,1.55,-0.01
2020-06-29 10:21:05,-0.062,-0.233,2.963,-0.366,-0.183,-0.183,-4.11,1.55,-0.01
2020-06-29 10:21:05,-0.099,-0.246,2.951,-0.244,0.000,0.000,-4.12,1.54,-0.01
2020-06-29 10:21:05,-0.090,-0.209,2.949,0.000,0.488,0.000,-4.13,1.55,-0.01
2020-06-29 10:21:05,-0.080,-0.235,2.955,0.305,0.305,0.000,-4.13,1.56,-0.01
2020-06-29 10:21:05,-0.075,-0.200,2.958,0.000,0.183,0.000,-4.13,1.56,-0.01
2020-06-29 10:21:05,-0.088,-0.225,2.942,0.244,0.000,0.000,-4.13,1.56,-0.01
2020-06-29 10:21:05,-0.109,-0.181,2.937,0.000,0.000,0.000,-4.13,1.56,-0.01
2020-06-29 10:21:05,-0.090,-0.181,2.935,0.000,0.000,0.305,-4.12,1.57,-0.01
2020-06-29 10:21:05,-0.060,-0.157,2.938,0.000,0.000,0.000,-4.11,1.57,-0.01
2020-06-29 10:21:05,-0.073,-0.229,2.930,0.000,-0.183,0.000,-4.10,1.56,-0.01
2020-06-29 10:21:05,-0.076,-0.217,2.953,-0.305,-0.183,0.000,-4.11,1.56,-0.01
2020-06-29 10:21:05,-0.084,-0.223,2.952,0.000,0.000,0.000,-4.11,1.56,-0.01
2020-06-29 10:21:05,-0.086,-0.207,2.959,0.244,0.244,-0.183,-4.11,1.56,-0.01
2020-06-29 10:21:05,-0.083,-0.223,2.951,0.305,0.488,0.000,-4.11,1.57,-0.01
2020-06-29 10:21:05,-0.068,-0.217,2.950,0.244,0.000,0.000,-4.11,1.57,-0.01
2020-06-29 10:21:05,-0.083,-0.214,2.950,0.000,0.000,0.000,-4.11,1.57,-0.01
2020-06-29 10:21:05,-0.103,-0.190,2.939,0.000,0.000,0.000,-4.11,1.57,-0.01
2020-06-29 10:21:05,-0.088,-0.179,2.933,0.000,0.000,0.000,-4.10,1.57,-0.01
2020-06-29 10:21:05,-0.063,-0.175,2.931,0.000,-0.244,0.000,-4.10,1.57,-0.01
2020-06-29 10:21:05,-0.065,-0.226,2.935,0.000,-0.183,0.000,-4.09,1.57,-0.01
2020-06-29 10:21:05,-0.079,-0.238,2.955,-0.183,-0.183,0.000,-4.10,1.56,-0.01
2020-06-29 10:21:05,-0.090,-0.220,2.945,-0.183,0.183,0.000,-4.10,1.56,-0.01
2020-06-29 10:21:05,-0.074,-0.226,2.968,0.305,0.244,-0.244,-4.10,1.57,-0.01
2020-06-29 10:21:05,-0.070,-0.223,2.958,0.183,0.427,0.183,-4.10,1.57,-0.01
2020-06-29 10:21:05,-0.072,-0.236,2.952,0.244,0.000,0.000,-4.10,1.57,-0.01
2020-06-29 10:21:05,-0.089,-0.218,2.948,0.000,0.000,0.183,-4.11,1.57,-0.01
2020-06-29 10:21:05,-0.088,-0.189,2.955,0.000,-0.244,0.244,-4.11,1.57,-0.01
2020-06-29 10:21:05,-0.084,-0.176,2.936,0.000,0.000,0.000,-4.10,1.57,-0.01
2020-06-29 10:21:05,-0.082,-0.184,2.931,-0.183,-0.183,0.000,-4.10,1.57,-0.01
2020-06-29 10:21:05,-0.066,-0.212,2.933,0.000,0.000,0.000,-4.09,1.57,-0.01
2020-06-29 10:21:05,-0.081,-0.236,2.947,-0.244,0.000,-0.305,-4.10,1.56,-0.01
2020-06-29 10:21:05,-0.114,-0.216,2.943,0.000,0.366,0.000,-4.10,1.57,-0.01
2020-06-29 10:21:05,-0.077,-0.216,2.963,0.244,0.488,0.000,-4.10,1.58,-0.01
2020-06-29 10:21:05,-0.070,-0.224,2.953,0.183,0.244,0.000,-4.10,1.58,-0.01
2020-06-29 10:21:05,-0.080,-0.233,2.947,0.000,0.000,0.000,-4.10,1.58,-0.01
2020-06-29 10:21:05,-0.105,-0.209,2.953,0.000,0.000,0.183,-4.10,1.58,-0.01
2020-06-29 10:21:05,-0.086,-0.190,2.956,-0.183,0.000,0.366,-4.10,1.58,-0.01
2020-06-29 10:21:05,-0.085,-0.162,2.929,0.000,0.000,0.000,-4.10,1.58,-0.01
2020-06-29 10:21:05,-0.073,-0.183,2.934,0.000,0.000,0.000,-4.09,1.58,-0.01
2020-06-29 10:21:05,-0.070,-0.203,2.946,0.000,-0.183,0.183,-4.09,1.58,-0.01
2020-06-29 10:21:05,-0.072,-0.227,2.945,0.000,0.000,-0.244,-4.09,1.58,-0.01
2020-06-29 10:21:05,-0.107,-0.210,2.944,0.000,0.000,-0.244,-4.09,1.57,-0.01
2020-06-29 10:21:05,-0.061,-0.208,2.970,0.366,0.488,0.183,-4.09,1.58,-0.01
2020-06-29 10:21:05,-0.072,-0.237,2.951,0.000,0.000,0.000,-4.09,1.58,-0.01
2020-06-29 10:21:05,-0.073,-0.235,2.945,0.000,0.000,0.000,-4.09,1.58,-0.01
2020-06-29 10:21:05,-0.089,-0.217,2.956,0.000,-0.366,0.000,-4.09,1.57,-0.01
2020-06-29 10:21:05,-0.087,-0.198,2.945,-0.183,0.000,0.000,-4.10,1.57,-0.01
2020-06-29 10:21:05,-0.086,-0.177,2.927,0.000,0.000,0.000,-4.09,1.58,-0.01
2020-06-29 10:21:05,-0.061,-0.188,2.924,0.000,0.000,-0.305,-4.09,1.58,-0.01
2020-06-29 10:21:05,-0.071,-0.214,2.945,0.000,0.000,0.000,-4.08,1.57,-0.01
2020-06-29 10:21:05,-0.083,-0.218,2.940,0.000,0.183,0.000,-4.09,1.57,-0.01
2020-06-29 10:21:05,-0.093,-0.219,2.942,0.000,0.183,-0.183,-4.09,1.57,-0.01
2020-06-29 10:21:05,-0.060,-0.201,2.966,0.305,0.366,0.244,-4.09,1.58,-0.01
2020-06-29 10:21:05,-0.078,-0.241,2.951,0.183,0.000,0.244,-4.08,1.58,-0.01
2020-06-29 10:21:05,-0.071,-0.236,2.957,0.000,-0.183,0.183,-4.09,1.57,-0.01
2020-06-29 10:21:05,-0.095,-0.228,2.952,0.000,-0.366,0.244,-4.09,1.57,-0.01
2020-06-29 10:21:05,-0.088,-0.181,2.956,0.000,0.000,0.183,-4.09,1.57,-0.01
2020-06-29 10:21:05,-0.089,-0.181,2.930,0.000,0.000,0.000,-4.09,1.57,-0.01
2020-06-29 10:21:05,-0.075,-0.187,2.924,0.183,0.000,-0.183,-4.08,1.57,-0.01
2020-06-29 10:21:05,-0.078,-0.218,2.941,0.000,0.000,-0.244,-4.08,1.57,-0.01
2020-06-29 10:21:05,-0.105,-0.201,2.940,0.000,0.000,0.000,-4.08,1.57,-0.01
2020-06-29 10:21:05,-0.098,-0.211,2.941,0.244,0.427,0.000,-4.08,1.58,-0.01
2020-06-29 10:21:05,-0.076,-0.211,2.957,0.244,0.183,0.000,-4.07,1.59,-0.01
2020-06-29 10:21:05,-0.073,-0.233,2.957,0.000,0.000,0.183,-4.07,1.58,-0.01
2020-06-29 10:21:05,-0.074,-0.230,2.963,0.000,-0.366,0.000,-4.08,1.58,-0.01
2020-06-29 10:21:05,-0.101,-0.235,2.949,-0.244,-0.183,0.244,-4.08,1.58,-0.01
2020-06-29 10:21:05,-0.082,-0.171,2.962,0.000,-0.183,0.000,-4.09,1.58,-0.01
2020-06-29 10:21:05,-0.075,-0.181,2.929,0.000,0.000,0.000,-4.08,1.58,-0.01
2020-06-29 10:21:05,-0.068,-0.195,2.943,0.000,0.000,0.000,-4.08,1.58,-0.01
2020-06-29 10:21:05,-0.072,-0.222,2.939,0.000,0.000,0.000,-4.07,1.58,-0.01
2020-06-29 10:21:05,-0.088,-0.204,2.943,0.000,0.000,0.000,-4.08,1.57,-0.01
2020-06-29 10:21:05,-0.079,-0.217,2.946,0.305,0.305,0.305,-4.07,1.58,-0.01
2020-06-29 10:21:05,-0.069,-0.219,2.956,0.000,0.000,0.000,-4.07,1.58,-0.01
2020-06-29 10:21:05,-0.066,-0.248,2.948,0.000,0.000,0.000,-4.07,1.57,-0.01
2020-06-29 10:21:05,-0.070,-0.242,2.960,-0.183,-0.488,0.244,-4.08,1.57,-0.01
2020-06-29 10:21:05,-0.087,-0.238,2.951,0.000,-0.183,0.000,-4.09,1.56,-0.01
2020-06-29 10:21:05,-0.089,-0.188,2.954,-0.244,0.000,-0.183,-4.09,1.57,-0.01
2020-06-29 10:21:05,-0.077,-0.187,2.926,0.000,0.183,0.000,-4.09,1.57,-0.01
2020-06-29 10:21:05,-0.068,-0.208,2.938,0.000,0.000,0.000,-4.09,1.57,-0.01
2020-06-29 10:21:05,-0.086,-0.216,2.935,0.000,0.000,-0.244,-4.09,1.57,-0.01
2020-06-29 10:21:05,-0.096,-0.199,2.940,0.000,0.183,0.000,-4.09,1.57,-0.01
2020-06-29 10:21:05,-0.083,-0.202,2.951,0.366,0.305,0.183,-4.08,1.57,-0.01
2020-06-29 10:21:05,-0.065,-0.213,2.959,0.000,0.183,0.183,-4.08,1.58,-0.01
2020-06-29 10:21:05,-0.077,-0.236,2.949,0.000,-0.183,0.000,-4.08,1.57,-0.01
2020-06-29 10:21:05,-0.078,-0.239,2.966,-0.183,-0.305,0.244,-4.09,1.57,-0.01
2020-06-29 10:21:05,-0.087,-0.217,2.960,-0.244,-0.366,0.183,-4.09,1.56,-0.01
2020-06-29 10:21:05,-0.094,-0.188,2.948,0.000,0.000,0.000,-4.09,1.57,-0.01
2020-06-29 10:21:05,-0.086,-0.180,2.938,0.000,0.183,0.000,-4.09,1.57,-0.01
2020-06-29 10:21:05,-0.075,-0.204,2.937,0.000,0.000,0.000,-4.08,1.57,-0.01
2020-06-29 10:21:05,-0.089,-0.208,2.929,0.000,0.000,-0.183,-4.08,1.57,-0.01
2020-06-29 10:21:06,-0.106,-0.198,2.936,0.000,0.000,0.000,-4.08,1.57,-0.01
2020-06-29 10:21:06,-0.082,-0.197,2.957,0.244,0.305,0.000,-4.08,1.58,-0.01
2020-06-29 10:21:06,-0.066,-0.234,2.941,0.000,0.000,0.000,-4.08,1.58,-0.01
2020-06-29 10:21:06,-0.066,-0.236,2.954,0.000,-0.305,0.183,-4.08,1.57,-0.01
2020-06-29 10:21:06,-0.069,-0.250,2.971,0.000,-0.305,0.183,-4.09,1.57,-0.01
2020-06-29 10:21:06,-0.084,-0.226,2.968,-0.366,0.000,0.000,-4.10,1.57,-0.01
2020-06-29 10:21:06,-0.084,-0.198,2.946,0.000,0.000,0.000,-4.10,1.57,-0.01
2020-06-29 10:21:06,-0.075,-0.185,2.952,0.183,0.183,0.000,-4.09,1.57,-0.01
2020-06-29 10:21:06,-0.066,-0.215,2.946,0.000,0.183,-0.183,-4.09,1.57,-0.01
2020-06-29 10:21:06,-0.090,-0.210,2.930,0.000,0.000,0.000,-4.09,1.57,-0.01
2020-06-29 10:21:06,-0.094,-0.207,2.938,0.305,0.000,0.000,-4.09,1.57,-0.01
2020-06-29 10:21:06,-0.075,-0.202,2.958,0.183,0.183,0.183,-4.08,1.57,-0.01
2020-06-29 10:21:06,-0.077,-0.235,2.935,0.000,0.000,0.244,-4.08,1.57,-0.01
2020-06-29 10:21:06,-0.059,-0.254,2.956,0.000,-0.427,0.183,-4.09,1.57,-0.01
2020-06-29 10:21:06,-0.081,-0.248,2.961,-0.366,-0.427,0.000,-4.10,1.55,-0.01
2020-06-29 10:21:06,-0.089,-0.224,2.970,-0.244,0.000,0.000,-4.11,1.55,-0.01
2020-06-29 10:21:06,-0.095,-0.195,2.929,0.000,0.000,-0.183,-4.11,1.55,-0.01
2020-06-29 10:21:06,-0.072,-0.196,2.943,0.244,0.244,0.000,-4.10,1.56,-0.01
2020-06-29 10:21:06,-0.077,-0.199,2.943,0.000,0.183,-0.244,-4.10,1.56,-0.01
2020-06-29 10:21:06,-0.092,-0.206,2.936,0.000,0.183,0.000,-4.10,1.57,-0.01
2020-06-29 10:21:06,-0.104,-0.188,2.931,0.183,0.183,0.000,-4.10,1.57,-0.01
2020-06-29 10:21:06,-0.068,-0.198,2.952,0.244,0.244,0.000,-4.09,1.58,-0.01
2020-06-29 10:21:06,-0.071,-0.211,2.943,0.000,-0.183,0.305,-4.09,1.57,-0.01
2020-06-29 10:21:06,-0.057,-0.254,2.958,-0.183,-0.366,0.244,-4.09,1.57,-0.01
2020-06-29 10:21:06,-0.086,-0.244,2.960,-0.427,-0.488,0.000,-4.10,1.55,-0.01
2020-06-29 10:21:06,-0.079,-0.223,2.974,-0.244,0.000,0.000,-4.11,1.55,-0.01
2020-06-29 10:21:06,-0.096,-0.195,2.948,0.000,0.000,0.000,-4.11,1.55,-0.01
2020-06-29 10:21:06,-0.071,-0.210,2.941,0.244,0.427,0.000,-4.10,1.57,-0.01
2020-06-29 10:21:06,-0.081,-0.203,2.936,0.000,0.000,-0.244,-4.10,1.56,-0.01
2020-06-29 10:21:06,-0.087,-0.198,2.943,0.000,0.000,0.183,-4.10,1.56,-0.01
2020-06-29 10:21:06,-0.104,-0.202,2.929,0.183,0.000,0.000,-4.10,1.57,-0.01
2020-06-29 10:21:06,-0.069,-0.202,2.938,0.000,0.000,0.000,-4.10,1.57,-0.01
2020-06-29 10:21:06,-0.060,-0.220,2.939,0.000,-0.305,0.000,-4.10,1.56,-0.01
2020-06-29 10:21:06,-0.056,-0.258,2.960,-0.244,-0.305,0.183,-4.10,1.55,-0.01
2020-06-29 10:21:06,-0.086,-0.262,2.962,-0.366,-0.183,0.000,-4.11,1.55,-0.01
2020-06-29 10:21:06,-0.080,-0.223,2.967,-0.305,0.000,-0.183,-4.13,1.55,-0.01
2020-06-29 10:21:06,-0.087,-0.207,2.950,0.000,0.305,0.000,-4.13,1.55,-0.01
2020-06-29 10:21:06,-0.069,-0.210,2.951,0.305,0.366,0.000,-4.13,1.56,-0.01
2020-06-29 10:21:06,-0.090,-0.216,2.938,0.000,0.000,0.000,-4.12,1.55,-0.01
2020-06-29 10:21:06,-0.094,-0.191,2.939,0.244,0.000,0.000,-4.12,1.56,-0.01
2020-06-29 10:21:06,-0.095,-0.200,2.937,0.305,0.000,0.000,-4.11,1.56,-0.01
2020-06-29 10:21:06,-0.076,-0.191,2.948,0.000,0.000,0.305,-4.11,1.57,-0.01
2020-06-29 10:21:06,-0.069,-0.228,2.938,0.000,-0.305,0.183,-4.11,1.56,-0.01
2020-06-29 10:21:06,-0.062,-0.244,2.957,-0.305,-0.427,0.000,-4.11,1.55,-0.01
2020-06-29 10:21:06,-0.085,-0.251,2.966,-0.366,-0.183,0.000,-4.13,1.55,-0.01
2020-06-29 10:21:06,-0.095,-0.211,2.956,-0.183,0.000,0.000,-4.13,1.55,-0.01
2020-06-29 10:21:06,-0.083,-0.202,2.949,0.183,0.366,0.000,-4.13,1.55,-0.01
2020-06-29 10:21:06,-0.062,-0.202,2.957,0.305,0.244,-0.183,-4.13,1.56,-0.01
2020-06-29 10:21:06,-0.092,-0.215,2.938,0.000,0.000,0.000,-4.13,1.55,-0.01
2020-06-29 10:21:06,-0.100,-0.184,2.931,0.183,0.000,0.000,-4.12,1.55,-0.01
2020-06-29 10:21:06,-0.079,-0.183,2.940,0.305,0.000,0.000,-4.11,1.56,-0.01
2020-06-29 10:21:06,-0.062,-0.183,2.941,0.000,-0.183,0.000,-4.11,1.56,-0.01
2020-06-29 10:21:06,-0.071,-0.223,2.939,0.000,-0.183,0.244,-4.10,1.55,-0.01
2020-06-29 10:21:06,-0.057,-0.244,2.959,-0.244,-0.427,0.000,-4.11,1.55,-0.01
2020-06-29 10:21:06,-0.078,-0.252,2.962,-0.427,0.000,0.000,-4.11,1.54,-0.01
2020-06-29 10:21:06,-0.094,-0.212,2.955,0.000,0.183,0.183,-4.13,1.54,-0.01
2020-06-29 10:21:06,-0.078,-0.219,2.951,0.244,0.488,0.000,-4.12,1.55,-0.01
2020-06-29 10:21:06,-0.064,-0.213,2.954,0.000,0.000,0.000,-4.13,1.55,-0.01
2020-06-29 10:21:06,-0.090,-0.223,2.932,0.183,0.000,0.305,-4.12,1.55,-0.01
2020-06-29 10:21:06,-0.105,-0.199,2.935,0.000,0.000,0.000,-4.13,1.55,-0.01
2020-06-29 10:21:06,-0.088,-0.184,2.945,0.000,0.000,0.244,-4.12,1.55,-0.01
2020-06-29 10:21:06,-0.063,-0.197,2.935,0.000,0.000,0.000,-4.11,1.55,-0.01
2020-06-29 10:21:06,-0.073,-0.222,2.940,-0.183,-0.244,0.000,-4.11,1.55,-0.01
2020-06-29 10:21:06,-0.061,-0.240,2.970,-0.427,-0.366,0.000,-4.12,1.55,-0.01
2020-06-29 10:21:06,-0.094,-0.245,2.956,-0.366,0.000,-0.244,-4.13,1.54,-0.01
2020-06-29 10:21:06,-0.082,-0.202,2.962,-0.183,0.183,0.000,-4.14,1.55,-0.01
2020-06-29 10:21:07,-0.082,-0.199,2.960,0.366,0.427,-0.244,-4.13,1.55,-0.01
2020-06-29 10:21:07,-0.074,-0.215,2.953,0.183,0.244,0.000,-4.13,1.55,-0.01
2020-06-29 10:21:07,-0.095,-0.208,2.929,0.000,0.000,0.183,-4.13,1.55,-0.01
2020-06-29 10:21:07,-0.083,-0.181,2.945,0.244,0.000,0.000,-4.13,1.55,-0.01
2020-06-29 10:21:07,-0.092,-0.177,2.937,0.000,0.000,0.000,-4.12,1.55,-0.01
2020-06-29 10:21:07,-0.072,-0.189,2.928,0.000,0.000,0.366,-4.11,1.56,-0.01
2020-06-29 10:21:07,-0.070,-0.230,2.925,0.000,-0.366,0.000,-4.11,1.55,-0.01
2020-06-29 10:21:07,-0.062,-0.239,2.967,-0.366,-0.305,0.000,-4.11,1.55,-0.01
2020-06-29 10:21:07,-0.099,-0.238,2.953,-0.183,0.000,0.000,-4.12,1.54,-0.01
2020-06-29 10:21:07,-0.082,-0.211,2.950,0.000,0.305,0.000,-4.13,1.55,-0.01
2020-06-29 10:21:07,-0.072,-0.214,2.960,0.366,0.366,0.000,-4.12,1.55,-0.01
2020-06-29 10:21:07,-0.070,-0.215,2.956,0.244,0.244,0.000,-4.12,1.55,-0.01
2020-06-29 10:21:07,-0.095,-0.215,2.939,0.183,0.000,0.000,-4.12,1.55,-0.01
2020-06-29 10:21:07,-0.085,-0.191,2.946,0.000,0.000,0.244,-4.12,1.55,-0.01
2020-06-29 10:21:07,-0.090,-0.179,2.940,0.183,0.000,0.000,-4.11,1.56,-0.01
2020-06-29 10:21:07,-0.064,-0.185,2.947,0.000,0.000,0.000,-4.11,1.56,-0.01
2020-06-29 10:21:07,-0.074,-0.241,2.928,0.000,-0.305,0.000,-4.10,1.55,-0.01
2020-06-29 10:21:07,-0.066,-0.243,2.968,-0.305,-0.183,0.000,-4.11,1.55,-0.01
2020-06-29 10:21:07,-0.098,-0.229,2.957,-0.244,0.000,0.000,-4.12,1.55,-0.01
2020-06-29 10:21:07,-0.087,-0.215,2.956,0.244,0.427,0.000,-4.12,1.55,-0.01
2020-06-29 10:21:07,-0.083,-0.223,2.947,0.244,0.244,0.000,-4.11,1.56,-0.01
2020-06-29 10:21:07,-0.073,-0.208,2.951,0.183,0.000,0.000,-4.11,1.56,-0.01
2020-06-29 10:21:07,-0.090,-0.203,2.942,0.183,0.000,0.000,-4.11,1.56,-0.01
2020-06-29 10:21:07,-0.103,-0.186,2.931,0.000,0.000,0.183,-4.11,1.56,-0.01
2020-06-29 10:21:07,-0.087,-0.168,2.928,0.000,0.000,0.366,-4.11,1.57,-0.01
2020-06-29 10:21:07,-0.055,-0.178,2.941,0.000,-0.305,0.000,-4.10,1.57,-0.01
2020-06-29 10:21:07,-0.063,-0.219,2.936,-0.366,-0.305,0.000,-4.10,1.55,-0.01
2020-06-29 10:21:07,-0.073,-0.236,2.953,-0.244,0.000,0.000,-4.10,1.55,-0.01
2020-06-29 10:21:07,-0.083,-0.215,2.949,-0.366,0.000,0.000,-4.11,1.55,-0.01
2020-06-29 10:21:07,-0.076,-0.209,2.964,0.244,0.366,-0.244,-4.11,1.55,-0.01
2020-06-29 10:21:07,-0.086,-0.226,2.947,0.000,0.488,0.000,-4.11,1.56,-0.01
2020-06-29 10:21:07,-0.072,-0.223,2.945,0.000,0.000,0.000,-4.11,1.56,-0.01
2020-06-29 10:21:07,-0.086,-0.203,2.942,0.000,-0.244,0.183,-4.11,1.55,-0.01
2020-06-29 10:21:07,-0.100,-0.191,2.939,0.244,0.000,0.000,-4.11,1.55,-0.01
2020-06-29 10:21:07,-0.090,-0.182,2.923,0.000,0.000,0.244,-4.10,1.56,-0.01
2020-06-29 10:21:07,-0.064,-0.188,2.923,0.000,-0.244,0.000,-4.10,1.56,-0.01
2020-06-29 10:21:07,-0.063,-0.237,2.941,-0.244,-0.244,0.000,-4.10,1.55,-0.01
2020-06-29 10:21:07,-0.087,-0.238,2.958,-0.244,0.000,0.000,-4.10,1.55,-0.01
2020-06-29 10:21:07,-0.094,-0.227,2.950,0.000,0.183,0.000,-4.11,1.55,-0.01
2020-06-29 10:21:07,-0.074,-0.217,2.970,0.244,0.244,0.000,-4.11,1.56,-0.01
2020-06-29 10:21:07,-0.073,-0.226,2.960,0.305,0.366,0.244,-4.11,1.56,-0.01
2020-06-29 10:21:07,-0.079,-0.228,2.950,0.183,-0.183,0.000,-4.11,1.56,-0.01
2020-06-29 10:21:07,-0.097,-0.214,2.949,0.000,0.000,0.183,-4.11,1.56,-0.01
2020-06-29 10:21:07,-0.088,-0.180,2.951,0.000,-0.183,0.244,-4.11,1.56,-0.01
2020-06-29 10:21:07,-0.076,-0.176,2.935,0.000,0.000,0.000,-4.10,1.56,-0.01
2020-06-29 10:21:07,-0.079,-0.186,2.928,0.000,-0.183,0.000,-4.10,1.56,-0.01
2020-06-29 10:21:07,-0.066,-0.227,2.944,0.000,-0.183,0.000,-4.09,1.55,-0.01
2020-06-29 10:21:07,-0.083,-0.228,2.948,-0.305,-0.183,0.000,-4.10,1.55,-0.01
2020-06-29 10:21:07,-0.108,-0.225,2.942,0.000,0.305,0.000,-4.10,1.55,-0.01
2020-06-29 10:21:07,-0.081,-0.203,2.963,0.183,0.427,0.000,-4.10,1.57,-0.01
2020-06-29 10:21:07,-0.063,-0.236,2.955,0.244,0.183,0.000,-4.10,1.57,-0.01
2020-06-29 10:21:07,-0.081,-0.220,2.950,0.000,-0.305,0.183,-4.10,1.56,-0.01
2020-06-29 10:21:07,-0.102,-0.212,2.949,0.183,0.000,0.000,-4.10,1.56,-0.01
2020-06-29 10:21:07,-0.087,-0.176,2.951,-0.183,-0.244,0.305,-4.10,1.56,-0.01
2020-06-29 10:21:07,-0.072,-0.174,2.932,0.000,0.000,0.000,-4.10,1.57,-0.01
2020-06-29 10:21:07,-0.070,-0.191,2.928,0.000,-0.244,0.000,-4.09,1.56,-0.01
2020-06-29 10:21:07,-0.067,-0.218,2.951,0.000,0.000,0.000,-4.09,1.56,-0.01
2020-06-29 10:21:07,-0.078,-0.224,2.942,-0.244,0.000,0.000,-4.09,1.55,-0.01
2020-06-29 10:21:07,-0.102,-0.214,2.945,0.000,0.305,-0.244,-4.09,1.56,-0.01
2020-06-29 10:21:07,-0.070,-0.211,2.964,0.244,0.488,0.183,-4.09,1.57,-0.01
2020-06-29 10:21:07,-0.069,-0.237,2.949,0.183,0.000,0.000,-4.09,1.57,-0.01
2020-06-29 10:21:07,-0.080,-0.235,2.944,0.000,-0.183,0.000,-4.10,1.56,-0.01
2020-06-29 10:21:07,-0.096,-0.208,2.958,0.000,-0.244,0.000,-4.10,1.56,-0.01
2020-06-29 10:21:07,-0.089,-0.195,2.939,-0.183,0.000,0.000,-4.10,1.56,-0.01
2020-06-29 10:21:07,-0.083,-0.176,2.925,0.000,0.000,0.000,-4.10,1.56,-0.01
2020-06-29 10:21:07,-0.066,-0.211,2.927,0.000,0.000,0.000,-4.09,1.57,-0.01
2020-06-29 10:21:07,-0.074,-0.223,2.950,-0.183,0.000,0.000,-4.09,1.56,-0.01
2020-06-29 10:21:07,-0.088,-0.230,2.950,0.000,0.183,0.000,-4.10,1.56,-0.01
2020-06-29 10:21:07,-0.095,-0.219,2.955,0.183,0.244,0.000,-4.10,1.57,-0.01
2020-06-29 10:21:07,-0.064,-0.213,2.968,0.244,0.305,0.183,-4.10,1.57,-0.01
2020-06-29 10:21:07,-0.083,-0.230,2.957,0.183,0.000,0.183,-4.09,1.57,-0.01
2020-06-29 10:21:07,-0.079,-0.243,2.956,0.000,0.000,0.000,-4.10,1.57,-0.01
2020-06-29 10:21:07,-0.093,-0.201,2.957,0.000,-0.427,0.244,-4.10,1.57,-0.01
2020-06-29 10:21:07,-0.088,-0.182,2.952,0.000,0.000,0.000,-4.10,1.57,-0.01
2020-06-29 10:21:07,-0.086,-0.174,2.929,0.000,0.000,0.000,-4.10,1.57,-0.01
2020-06-29 10:21:07,-0.068,-0.199,2.926,0.000,0.000,0.000,-4.09,1.57,-0.01
2020-06-29 10:21:07,-0.073,-0.222,2.943,0.000,0.000,-0.183,-4.09,1.57,-0.01
2020-06-29 10:21:07,-0.103,-0.214,2.939,0.000,0.000,0.000,-4.09,1.57,-0.01
2020-06-29 10:21:07,-0.088,-0.208,2.952,0.244,0.305,0.000,-4.09,1.57,-0.01
2020-06-29 10:21:07,-0.066,-0.225,2.957,0.244,0.244,0.000,-4.09,1.58,-0.01
2020-06-29 10:21:07,-0.072,-0.222,2.955,0.000,0.000,0.183,-4.09,1.57,-0.01
2020-06-29 10:21:07,-0.077,-0.226,2.959,0.000,-0.305,0.244,-4.09,1.57,-0.01
2020-06-29 10:21:07,-0.092,-0.217,2.947,-0.244,-0.244,0.000,-4.09,1.57,-0.01
2020-06-29 10:21:07,-0.083,-0.161,2.949,0.000,0.000,0.000,-4.10,1.57,-0.01
2020-06-29 10:21:07,-0.073,-0.174,2.926,0.183,0.000,0.000,-4.08,1.57,-0.01
2020-06-29 10:21:07,-0.067,-0.204,2.935,0.000,0.000,0.000,-4.08,1.57,-0.01
2020-06-29 10:21:07,-0.072,-0.215,2.942,0.000,0.000,0.000,-4.08,1.57,-0.01
2020-06-29 10:21:07,-0.097,-0.212,2.943,0.000,0.183,-0.305,-4.08,1.57,-0.01
2020-06-29 10:21:07,-0.080,-0.219,2.952,0.000,0.427,0.244,-4.08,1.57,-0.01
2020-06-29 10:21:07,-0.078,-0.227,2.950,0.244,0.244,0.000,-4.08,1.57,-0.01
2020-06-29 10:21:07,-0.066,-0.249,2.953,0.000,0.000,0.000,-4.08,1.57,-0.01
2020-06-29 10:21:07,-0.084,-0.222,2.962,-0.183,-0.427,0.183,-4.09,1.57,-0.01
2020-06-29 10:21:07,-0.094,-0.233,2.943,0.000,0.000,0.244,-4.09,1.57,-0.01
2020-06-29 10:21:07,-0.091,-0.176,2.947,-0.244,0.000,0.000,-4.10,1.57,-0.01
2020-06-29 10:21:07,-0.067,-0.183,2.934,0.000,0.000,0.000,-4.09,1.57,-0.01
2020-06-29 10:21:07,-0.075,-0.202,2.939,0.000,0.000,0.000,-4.09,1.57,-0.01
2020-06-29 10:21:07,-0.082,-0.224,2.942,0.000,0.183,0.000,-4.08,1.57,-0.01
2020-06-29 10:21:07,-0.097,-0.198,2.942,0.000,0.000,0.000,-4.09,1.57,-0.01
2020-06-29 10:21:07,-0.071,-0.211,2.959,0.366,0.366,0.000,-4.08,1.58,-0.01
2020-06-29 10:21:07,-0.075,-0.222,2.955,0.000,0.000,0.244,-4.08,1.57,-0.01
2020-06-29 10:21:07,-0.067,-0.248,2.954,0.000,0.000,0.000,-4.08,1.57,-0.01
2020-06-29 10:21:07,-0.083,-0.233,2.958,-0.244,-0.427,0.183,-4.09,1.57,-0.01
2020-06-29 10:21:07,-0.087,-0.215,2.959,0.000,-0.183,0.244,-4.10,1.57,-0.01
2020-06-29 10:21:07,-0.091,-0.184,2.938,0.000,0.000,0.000,-4.10,1.57,-0.01
2020-06-29 10:21:07,-0.074,-0.179,2.931,0.000,0.000,-0.183,-4.09,1.57,-0.01
2020-06-29 10:21:07,-0.070,-0.211,2.942,0.000,0.000,0.000,-4.09,1.57,-0.01
2020-06-29 10:21:07,-0.086,-0.214,2.938,0.000,0.000,-0.244,-4.09,1.57,-0.01
2020-06-29 10:21:07,-0.102,-0.203,2.936,0.000,0.183,0.000,-4.09,1.57,-0.01
2020-06-29 10:21:07,-0.073,-0.205,2.959,0.427,0.244,0.000,-4.08,1.57,-0.01
2020-06-29 10:21:07,-0.063,-0.226,2.954,0.000,0.000,0.183,-4.08,1.57,-0.01
2020-06-29 10:21:07,-0.069,-0.239,2.957,0.000,-0.305,0.000,-4.08,1.57,-0.01
2020-06-29 10:21:07,-0.089,-0.243,2.958,0.000,-0.244,0.183,-4.09,1.56,-0.01
2020-06-29 10:21:07,-0.076,-0.197,2.966,-0.244,-0.366,0.000,-4.10,1.56,-0.01
2020-06-29 10:21:07,-0.088,-0.189,2.936,0.000,0.000,0.000,-4.09,1.56,-0.01
2020-06-29 10:21:07,-0.076,-0.183,2.943,0.000,0.000,0.000,-4.09,1.56,-0.01
2020-06-29 10:21:07,-0.072,-0.215,2.938,0.000,0.000,0.000,-4.08,1.56,-0.01
2020-06-29 10:21:07,-0.088,-0.214,2.937,0.000,0.000,0.000,-4.09,1.55,-0.01
2020-06-29 10:21:07,-0.107,-0.212,2.928,0.183,0.244,0.000,-4.08,1.56,-0.01
2020-06-29 10:21:07,-0.073,-0.208,2.965,0.244,0.244,0.000,-4.08,1.57,-0.01
2020-06-29 10:21:07,-0.067,-0.237,2.942,0.000,0.000,0.000,-4.08,1.57,-0.01
2020-06-29 10:21:07,-0.064,-0.246,2.958,0.000,-0.366,0.183,-4.09,1.56,-0.01
2020-06-29 10:21:07,-0.090,-0.241,2.960,-0.305,-0.244,0.000,-4.10,1.55,-0.01
2020-06-29 10:21:07,-0.080,-0.206,2.968,-0.305,0.000,0.000,-4.10,1.55,-0.01
2020-06-29 10:21:07,-0.086,-0.185,2.938,0.000,0.183,0.000,-4.10,1.56,-0.01
2020-06-29 10:21:07,-0.072,-0.191,2.947,0.183,0.244,0.000,-4.10,1.56,-0.01
2020-06-29 10:21:07,-0.079,-0.205,2.938,0.000,0.000,0.000,-4.09,1.56,-0.01
2020-06-29 10:21:07,-0.085,-0.208,2.932,0.000,0.000,0.000,-4.09,1.56,-0.01
2020-06-29 10:21:07,-0.098,-0.204,2.939,0.244,0.183,0.000,-4.09,1.56,-0.01
2020-06-29 10:21:07,-0.070,-0.208,2.966,0.244,0.183,0.000,-4.09,1.57,-0.01
2020-06-29 10:21:07,-0.076,-0.232,2.941,0.000,0.000,0.183,-4.08,1.57,-0.01
2020-06-29 10:21:07,-0.057,-0.255,2.959,0.000,-0.427,0.183,-4.09,1.56,-0.01
2020-06-29 10:21:07,-0.089,-0.240,2.958,-0.366,-0.427,0.183,-4.10,1.55,-0.01
2020-06-29 10:21:08,-0.084,-0.207,2.964,0.000,0.000,0.000,-4.10,1.55,-0.01
2020-06-29 10:21:08,-0.092,-0.191,2.928,0.000,0.000,0.000,-4.10,1.55,-0.01
2020-06-29 10:21:08,-0.068,-0.200,2.944,0.366,0.183,0.000,-4.10,1.56,-0.01
2020-06-29 10:21:08,-0.083,-0.210,2.941,0.000,0.000,-0.244,-4.09,1.55,-0.01
2020-06-29 10:21:08,-0.090,-0.200,2.936,0.000,0.000,0.000,-4.09,1.55,-0.01
2020-06-29 10:21:08,-0.095,-0.204,2.936,0.305,0.000,0.000,-4.09,1.56,-0.01
2020-06-29 10:21:08,-0.061,-0.202,2.958,0.183,0.000,0.000,-4.09,1.56,-0.01
2020-06-29 10:21:08,-0.074,-0.236,2.944,0.000,-0.244,0.183,-4.09,1.55,-0.01
2020-06-29 10:21:08,-0.060,-0.249,2.962,0.000,-0.366,0.000,-4.09,1.55,-0.01
2020-06-29 10:21:08,-0.089,-0.252,2.955,-0.366,-0.427,0.000,-4.10,1.54,-0.01
2020-06-29 10:21:08,-0.088,-0.199,2.967,0.000,0.000,0.000,-4.11,1.54,-0.01
2020-06-29 10:21:08,-0.091,-0.201,2.939,0.000,0.305,0.000,-4.10,1.55,-0.01
2020-06-29 10:21:08,-0.073,-0.202,2.938,0.000,0.244,0.000,-4.10,1.55,-0.01
2020-06-29 10:21:08,-0.085,-0.218,2.933,0.183,0.000,0.000,-4.10,1.55,-0.01
2020-06-29 10:21:08,-0.100,-0.191,2.942,0.000,0.000,0.000,-4.10,1.55,-0.01
2020-06-29 10:21:08,-0.096,-0.207,2.941,0.305,0.305,0.183,-4.09,1.56,-0.01
2020-06-29 10:21:08,-0.068,-0.209,2.942,0.000,0.000,0.000,-4.09,1.56,-0.01
2020-06-29 10:21:08,-0.067,-0.233,2.949,0.000,-0.244,0.000,-4.09,1.56,-0.01
2020-06-29 10:21:08,-0.062,-0.238,2.971,-0.305,-0.305,0.183,-4.10,1.55,-0.01
2020-06-29 10:21:08,-0.093,-0.253,2.956,-0.244,0.000,0.000,-4.11,1.55,-0.01
2020-06-29 10:21:08,-0.086,-0.194,2.961,-0.244,0.000,0.000,-4.12,1.55,-0.01
2020-06-29 10:21:08,-0.083,-0.191,2.953,0.244,0.244,0.000,-4.11,1.55,-0.01
2020-06-29 10:21:08,-0.072,-0.214,2.946,0.183,0.244,0.000,-4.10,1.55,-0.01
2020-06-29 10:21:08,-0.091,-0.206,2.929,0.000,0.000,0.000,-4.11,1.55,-0.01
2020-06-29 10:21:08,-0.090,-0.198,2.947,0.244,0.000,0.000,-4.10,1.56,-0.01
2020-06-29 10:21:08,-0.090,-0.195,2.942,0.000,0.244,0.000,-4.10,1.56,-0.01
2020-06-29 10:21:08,-0.071,-0.218,2.935,0.183,0.000,0.244,-4.10,1.57,-0.01
2020-06-29 10:21:08,-0.065,-0.232,2.944,-0.183,-0.366,0.000,-4.10,1.56,-0.01
2020-06-29 10:21:08,-0.061,-0.250,2.969,-0.244,-0.488,0.000,-4.10,1.55,-0.01
2020-06-29 10:21:08,-0.094,-0.236,2.961,-0.305,0.000,0.000,-4.11,1.55,-0.01
2020-06-29 10:21:08,-0.090,-0.212,2.942,0.000,0.000,0.000,-4.12,1.55,-0.01
2020-06-29 10:21:08,-0.074,-0.184,2.952,0.183,0.183,0.000,-4.12,1.55,-0.01
2020-06-29 10:21:08,-0.067,-0.213,2.950,0.366,0.183,-0.305,-4.11,1.55,-0.01
2020-06-29 10:21:08,-0.095,-0.203,2.927,0.000,0.000,0.000,-4.11,1.55,-0.01
2020-06-29 10:21:08,-0.094,-0.192,2.931,0.305,0.000,0.000,-4.10,1.55,-0.01
2020-06-29 10:21:08,-0.079,-0.181,2.944,0.244,0.000,0.000,-4.10,1.55,-0.01
2020-06-29 10:21:08,-0.068,-0.209,2.941,0.000,0.000,0.183,-4.09,1.55,-0.01
2020-06-29 10:21:08,-0.069,-0.234,2.939,0.000,-0.183,0.305,-4.09,1.55,-0.01
2020-06-29 10:21:08,-0.068,-0.253,2.963,-0.305,-0.488,0.000,-4.10,1.54,-0.01
2020-06-29 10:21:08,-0.090,-0.229,2.965,-0.366,0.000,0.000,-4.11,1.54,-0.01
2020-06-29 10:21:08,-0.091,-0.216,2.947,0.000,0.183,0.000,-4.11,1.55,-0.01
2020-06-29 10:21:08,-0.082,-0.198,2.946,0.183,0.366,0.000,-4.11,1.55,-0.01
2020-06-29 10:21:08,-0.063,-0.207,2.950,0.305,0.244,-0.183,-4.11,1.55,-0.01
2020-06-29 10:21:08,-0.095,-0.205,2.933,0.000,0.000,0.000,-4.11,1.55,-0.01
2020-06-29 10:21:08,-0.104,-0.204,2.928,0.305,0.183,0.244,-4.10,1.55,-0.01
2020-06-29 10:21:08,-0.083,-0.185,2.940,0.000,0.000,0.000,-4.10,1.56,-0.01
2020-06-29 10:21:08,-0.059,-0.212,2.944,0.000,0.000,0.000,-4.10,1.56,-0.01
2020-06-29 10:21:08,-0.071,-0.245,2.950,-0.244,-0.244,0.244,-4.10,1.55,-0.01
2020-06-29 10:21:08,-0.073,-0.260,2.969,-0.366,-0.183,-0.183,-4.11,1.55,-0.01
2020-06-29 10:21:08,-0.088,-0.232,2.972,-0.488,0.000,0.000,-4.12,1.55,-0.01
2020-06-29 10:21:08,-0.091,-0.211,2.955,0.000,0.305,0.000,-4.13,1.55,-0.01
2020-06-29 10:21:08,-0.081,-0.215,2.953,0.000,0.366,-0.183,-4.13,1.56,-0.01
2020-06-29 10:21:08,-0.071,-0.210,2.952,0.183,0.000,0.000,-4.13,1.56,-0.01
2020-06-29 10:21:08,-0.091,-0.217,2.937,0.183,0.000,0.000,-4.12,1.56,-0.01
2020-06-29 10:21:08,-0.109,-0.202,2.928,0.000,0.183,0.244,-4.12,1.57,-0.01
2020-06-29 10:21:08,-0.077,-0.194,2.948,0.000,0.000,0.183,-4.12,1.57,-0.01
2020-06-29 10:21:08,-0.061,-0.211,2.938,0.000,-0.244,0.000,-4.11,1.57,-0.01
2020-06-29 10:21:08,-0.063,-0.250,2.950,-0.244,-0.366,0.305,-4.12,1.56,-0.01
2020-06-29 10:21:08,-0.073,-0.248,2.969,-0.366,-0.305,0.000,-4.13,1.55,-0.01
2020-06-29 10:21:08,-0.088,-0.241,2.960,-0.305,0.000,-0.244,-4.14,1.55,-0.01
2020-06-29 10:21:08,-0.079,-0.189,2.955,0.000,0.244,0.000,-4.15,1.55,-0.01
2020-06-29 10:21:08,-0.069,-0.229,2.952,0.488,0.427,-0.244,-4.14,1.56,-0.01
2020-06-29 10:21:08,-0.081,-0.196,2.949,0.000,0.000,0.000,-4.14,1.55,-0.01
2020-06-29 10:21:08,-0.087,-0.212,2.931,0.488,0.000,0.183,-4.13,1.55,-0.01
2020-06-29 10:21:08,-0.087,-0.175,2.937,0.000,0.000,0.000,-4.13,1.55,-0.01
2020-06-29 10:21:08,-0.073,-0.192,2.944,0.244,0.000,0.000,-4.12,1.56,-0.01
2020-06-29 10:21:08,-0.071,-0.201,2.932,0.000,-0.183,0.183,-4.11,1.55,-0.01
2020-06-29 10:21:08,-0.058,-0.266,2.943,0.000,-0.366,0.000,-4.11,1.55,-0.01
2020-06-29 10:21:08,-0.082,-0.235,2.963,-0.549,-0.305,0.183,-4.13,1.54,-0.01
2020-06-29 10:21:08,-0.096,-0.247,2.957,0.000,0.244,0.000,-4.14,1.54,-0.01
2020-06-29 10:21:08,-0.087,-0.192,2.951,0.000,0.305,0.000,-4.14,1.55,-0.01
2020-06-29 10:21:08,-0.064,-0.222,2.958,0.610,0.366,0.000,-4.13,1.55,-0.01
2020-06-29 10:21:08,-0.089,-0.201,2.942,0.000,0.000,0.000,-4.13,1.55,-0.01
2020-06-29 10:21:08,-0.101,-0.204,2.935,0.366,0.000,0.000,-4.13,1.55,-0.01
2020-06-29 10:21:08,-0.090,-0.166,2.939,0.000,-0.183,0.305,-4.13,1.55,-0.01
2020-06-29 10:21:08,-0.070,-0.193,2.939,0.244,0.000,0.000,-4.11,1.56,-0.01
2020-06-29 10:21:08,-0.078,-0.187,2.943,-0.305,-0.244,0.183,-4.11,1.55,-0.01
2020-06-29 10:21:08,-0.061,-0.258,2.951,0.000,-0.244,0.000,-4.11,1.55,-0.01
2020-06-29 10:21:08,-0.082,-0.238,2.966,-0.610,-0.244,0.000,-4.12,1.54,-0.01
2020-06-29 10:21:08,-0.096,-0.219,2.962,0.000,0.244,0.000,-4.13,1.55,-0.01
2020-06-29 10:21:08,-0.088,-0.205,2.954,0.000,0.427,-0.305,-4.13,1.55,-0.01
2020-06-29 10:21:08,-0.071,-0.222,2.951,0.183,0.305,0.000,-4.13,1.56,-0.01
2020-06-29 10:21:08,-0.091,-0.208,2.934,0.000,0.000,0.000,-4.13,1.56,-0.01
2020-06-29 10:21:08,-0.091,-0.195,2.943,0.000,0.000,0.000,-4.13,1.56,-0.01
2020-06-29 10:21:08,-0.096,-0.184,2.939,0.000,-0.183,0.000,-4.12,1.56,-0.01
2020-06-29 10:21:08,-0.073,-0.184,2.926,0.000,0.000,0.305,-4.11,1.57,-0.01
2020-06-29 10:21:08,-0.068,-0.210,2.937,0.000,-0.305,0.000,-4.11,1.56,-0.01
2020-06-29 10:21:08,-0.061,-0.230,2.960,-0.366,-0.305,0.000,-4.11,1.55,-0.01
2020-06-29 10:21:08,-0.086,-0.257,2.955,-0.244,0.000,0.000,-4.12,1.55,-0.01
2020-06-29 10:21:08,-0.081,-0.202,2.962,-0.305,0.000,0.000,-4.13,1.55,-0.01
2020-06-29 10:21:08,-0.078,-0.224,2.965,0.366,0.366,-0.183,-4.13,1.55,-0.01
2020-06-29 10:21:08,-0.081,-0.211,2.953,0.000,0.427,0.000,-4.13,1.56,-0.01
2020-06-29 10:21:08,-0.087,-0.234,2.934,0.244,0.000,0.183,-4.13,1.56,-0.01
2020-06-29 10:21:08,-0.089,-0.172,2.949,0.000,0.000,0.000,-4.13,1.56,-0.01
2020-06-29 10:21:08,-0.094,-0.198,2.936,0.305,0.000,0.000,-4.12,1.56,-0.01
2020-06-29 10:21:08,-0.080,-0.171,2.922,-0.183,0.000,0.305,-4.12,1.57,-0.01
2020-06-29 10:21:08,-0.065,-0.230,2.925,0.000,-0.244,0.000,-4.11,1.56,-0.01
2020-06-29 10:21:08,-0.060,-0.219,2.961,-0.427,-0.305,0.000,-4.12,1.55,-0.01
2020-06-29 10:21:08,-0.091,-0.257,2.948,0.000,0.000,0.000,-4.12,1.55,-0.01
2020-06-29 10:21:09,-0.087,-0.201,2.950,-0.183,0.244,0.000,-4.13,1.55,-0.01
2020-06-29 10:21:09,-0.069,-0.225,2.963,0.427,0.366,-0.183,-4.13,1.56,-0.01
2020-06-29 10:21:09,-0.077,-0.205,2.957,0.000,0.183,0.000,-4.13,1.56,-0.01
2020-06-29 10:21:09,-0.087,-0.229,2.938,0.366,0.000,0.000,-4.12,1.56,-0.01
2020-06-29 10:21:09,-0.091,-0.181,2.940,0.000,-0.244,0.244,-4.13,1.56,-0.01
2020-06-29 10:21:09,-0.092,-0.180,2.938,0.244,0.000,0.183,-4.11,1.56,-0.01
2020-06-29 10:21:09,-0.070,-0.170,2.938,0.000,0.000,0.000,-4.11,1.57,-0.01
2020-06-29 10:21:09,-0.077,-0.226,2.921,0.000,-0.183,0.000,-4.10,1.56,-0.01
2020-06-29 10:21:09,-0.065,-0.229,2.961,-0.305,-0.183,0.000,-4.11,1.55,-0.01
2020-06-29 10:21:09,-0.096,-0.235,2.952,-0.305,0.000,0.000,-4.11,1.55,-0.01
2020-06-29 10:21:09,-0.095,-0.215,2.954,0.000,0.366,0.000,-4.12,1.56,-0.01
2020-06-29 10:21:09,-0.082,-0.220,2.953,0.244,0.427,0.000,-4.11,1.57,-0.01
2020-06-29 10:21:09,-0.072,-0.211,2.959,0.000,0.000,0.000,-4.11,1.57,-0.01
2020-06-29 10:21:09,-0.089,-0.214,2.942,0.000,0.000,0.000,-4.11,1.57,-0.01
2020-06-29 10:21:09,-0.106,-0.196,2.940,0.000,0.000,0.000,-4.11,1.57,-0.01
2020-06-29 10:21:09,-0.088,-0.169,2.939,0.000,0.000,0.244,-4.11,1.57,-0.01
2020-06-29 10:21:09,-0.058,-0.175,2.942,0.000,0.000,0.000,-4.10,1.58,-0.01
2020-06-29 10:21:09,-0.071,-0.216,2.932,-0.244,-0.183,0.000,-4.10,1.57,-0.01
2020-06-29 10:21:09,-0.067,-0.237,2.960,-0.244,-0.244,0.000,-4.10,1.57,-0.01
2020-06-29 10:21:09,-0.085,-0.220,2.954,-0.366,0.000,0.000,-4.11,1.56,-0.01
2020-06-29 10:21:09,-0.083,-0.226,2.961,0.183,0.366,0.000,-4.11,1.57,-0.01
2020-06-29 10:21:09,-0.083,-0.218,2.955,0.000,0.488,0.000,-4.11,1.57,-0.01
2020-06-29 10:21:09,-0.064,-0.237,2.953,0.244,0.000,0.000,-4.11,1.57,-0.01
2020-06-29 10:21:09,-0.086,-0.205,2.941,0.000,-0.244,0.000,-4.12,1.57,-0.01
2020-06-29 10:21:09,-0.095,-0.207,2.944,0.305,0.000,0.183,-4.11,1.57,-0.01
2020-06-29 10:21:09,-0.091,-0.166,2.929,-0.244,0.000,0.183,-4.11,1.57,-0.01
2020-06-29 10:21:09,-0.091,-0.166,2.929,0.000,0.000,0.000,-4.11,1.57,-0.01
2020-06-29 10:21:09,-0.061,-0.192,2.933,0.000,0.000,0.000,-4.10,1.57,-0.01
2020-06-29 10:21:09,-0.064,-0.215,2.934,-0.244,-0.244,-0.244,-4.10,1.57,-0.01
2020-06-29 10:21:09,-0.074,-0.243,2.958,0.000,0.000,0.000,-4.10,1.57,-0.01
2020-06-29 10:21:09,-0.095,-0.219,2.942,-0.183,0.183,0.000,-4.10,1.57,-0.01
2020-06-29 10:21:09,-0.072,-0.222,2.962,0.305,0.305,-0.244,-4.10,1.57,-0.01
2020-06-29 10:21:09,-0.073,-0.215,2.962,0.183,0.366,0.244,-4.10,1.57,-0.01
2020-06-29 10:21:09,-0.076,-0.242,2.954,0.305,0.000,0.000,-4.10,1.57,-0.01
2020-06-29 10:21:09,-0.097,-0.212,2.948,0.000,-0.183,0.000,-4.11,1.57,-0.01
2020-06-29 10:21:09,-0.088,-0.191,2.953,0.000,-0.183,0.183,-4.11,1.57,-0.01
2020-06-29 10:21:09,-0.090,-0.171,2.932,0.000,0.000,0.183,-4.10,1.57,-0.01
2020-06-29 10:21:09,-0.080,-0.172,2.930,0.000,0.000,0.000,-4.10,1.57,-0.01
2020-06-29 10:21:09,-0.068,-0.211,2.931,0.000,0.000,0.000,-4.09,1.57,-0.01
2020-06-29 10:21:09,-0.079,-0.223,2.948,-0.244,0.000,-0.183,-4.09,1.57,-0.01
2020-06-29 10:21:09,-0.115,-0.218,2.945,0.000,0.305,0.000,-4.09,1.57,-0.01
2020-06-29 10:21:09,-0.078,-0.207,2.964,0.244,0.427,0.000,-4.09,1.58,-0.01
2020-06-29 10:21:09,-0.067,-0.230,2.956,0.244,0.000,0.000,-4.09,1.58,-0.01
2020-06-29 10:21:09,-0.078,-0.223,2.952,0.000,0.000,0.000,-4.09,1.58,-0.01
2020-06-29 10:21:09,-0.096,-0.220,2.954,0.000,-0.244,0.000,-4.09,1.58,-0.01
2020-06-29 10:21:09,-0.086,-0.184,2.954,-0.183,-0.244,0.183,-4.10,1.58,-0.01
2020-06-29 10:21:09,-0.083,-0.176,2.931,0.000,0.000,0.000,-4.09,1.58,-0.01
2020-06-29 10:21:09,-0.072,-0.170,2.932,0.000,0.000,0.000,-4.09,1.58,-0.01
2020-06-29 10:21:09,-0.065,-0.224,2.944,0.000,0.000,0.000,-4.08,1.58,-0.01
2020-06-29 10:21:09,-0.074,-0.223,2.942,-0.305,0.000,-0.183,-4.08,1.57,-0.01
2020-06-29 10:21:09,-0.105,-0.230,2.944,0.000,0.183,-0.183,-4.09,1.57,-0.01
2020-06-29 10:21:09,-0.067,-0.209,2.972,0.000,0.488,0.305,-4.09,1.58,-0.01
2020-06-29 10:21:09,-0.072,-0.251,2.950,0.183,0.000,0.000,-4.09,1.58,-0.01
2020-06-29 10:21:09,-0.077,-0.233,2.953,0.000,0.000,0.183,-4.10,1.58,-0.01
2020-06-29 10:21:09,-0.092,-0.230,2.961,0.000,-0.305,0.183,-4.10,1.58,-0.01
2020-06-29 10:21:09,-0.090,-0.200,2.945,-0.244,0.000,0.183,-4.10,1.58,-0.01
2020-06-29 10:21:09,-0.090,-0.187,2.934,0.000,0.000,0.000,-4.10,1.58,-0.01
2020-06-29 10:21:09,-0.064,-0.183,2.929,0.000,0.000,0.000,-4.10,1.58,-0.01
2020-06-29 10:21:09,-0.072,-0.219,2.947,0.000,0.000,0.000,-4.09,1.58,-0.01
2020-06-29 10:21:09,-0.089,-0.209,2.939,0.000,0.183,0.000,-4.09,1.58,-0.01
2020-06-29 10:21:09,-0.096,-0.223,2.941,0.183,0.244,-0.183,-4.09,1.58,-0.01
2020-06-29 10:21:09,-0.064,-0.196,2.970,0.183,0.305,0.244,-4.09,1.59,-0.01
2020-06-29 10:21:09,-0.075,-0.239,2.955,0.305,0.000,0.000,-4.09,1.58,-0.01
2020-06-29 10:21:09,-0.074,-0.229,2.958,0.000,-0.244,0.000,-4.09,1.58,-0.01
2020-06-29 10:21:09,-0.091,-0.227,2.950,0.000,-0.305,0.183,-4.10,1.58,-0.01
2020-06-29 10:21:09,-0.086,-0.178,2.953,0.000,-0.183,0.000,-4.10,1.58,-0.01
2020-06-29 10:21:09,-0.090,-0.183,2.925,0.000,0.000,0.000,-4.09,1.58,-0.01
2020-06-29 10:21:09,-0.069,-0.185,2.924,0.000,0.000,0.000,-4.09,1.58,-0.01
2020-06-29 10:21:09,-0.074,-0.222,2.943,0.000,0.000,0.000,-4.08,1.58,-0.01
2020-06-29 10:21:09,-0.096,-0.212,2.940,0.000,0.000,0.000,-4.09,1.57,-0.01
2020-06-29 10:21:09,-0.096,-0.215,2.939,0.000,0.305,0.000,-4.09,1.58,-0.01
2020-06-29 10:21:09,-0.076,-0.213,2.960,0.305,0.183,0.000,-4.08,1.58,-0.01
2020-06-29 10:21:09,-0.070,-0.234,2.955,0.000,0.000,0.183,-4.08,1.58,-0.01
2020-06-29 10:21:09,-0.076,-0.236,2.962,0.000,-0.427,0.183,-4.09,1.58,-0.01
2020-06-29 10:21:09,-0.101,-0.236,2.946,0.000,0.000,0.000,-4.09,1.58,-0.01
2020-06-29 10:21:09,-0.083,-0.181,2.966,-0.183,-0.244,0.000,-4.10,1.58,-0.01
2020-06-29 10:21:09,-0.080,-0.176,2.932,0.000,0.000,0.000,-4.09,1.58,-0.01
2020-06-29 10:21:09,-0.071,-0.205,2.944,0.000,0.000,0.000,-4.09,1.58,-0.01
2020-06-29 10:21:09,-0.076,-0.212,2.938,-0.183,0.000,0.000,-4.09,1.58,-0.01
2020-06-29 10:21:09,-0.090,-0.217,2.946,0.000,0.000,-0.183,-4.09,1.57,-0.01
2020-06-29 10:21:09,-0.091,-0.210,2.943,0.000,0.305,0.183,-4.09,1.58,-0.01
2020-06-29 10:21:09,-0.071,-0.227,2.962,0.305,0.183,0.000,-4.09,1.58,-0.01
2020-06-29 10:21:09,-0.070,-0.228,2.951,0.000,0.000,0.183,-4.09,1.58,-0.01
2020-06-29 10:21:09,-0.068,-0.253,2.961,0.000,-0.366,0.183,-4.09,1.58,-0.01
2020-06-29 10:21:09,-0.098,-0.222,2.947,-0.305,-0.183,0.244,-4.10,1.57,-0.01
2020-06-29 10:21:09,-0.085,-0.191,2.956,0.000,0.000,0.000,-4.10,1.57,-0.01
2020-06-29 10:21:09,-0.076,-0.168,2.928,0.000,0.183,0.000,-4.10,1.58,-0.01
2020-06-29 10:21:09,-0.064,-0.201,2.941,0.183,0.000,-0.183,-4.09,1.58,-0.01
2020-06-29 10:21:09,-0.083,-0.201,2.935,0.000,0.000,0.000,-4.09,1.57,-0.01
2020-06-29 10:21:09,-0.088,-0.206,2.935,0.000,0.183,0.000,-4.09,1.57,-0.01
2020-06-29 10:21:09,-0.083,-0.193,2.948,0.244,0.183,0.183,-4.08,1.58,-0.01
2020-06-29 10:21:09,-0.065,-0.224,2.961,0.183,0.244,0.000,-4.08,1.58,-0.01
2020-06-29 10:21:09,-0.075,-0.234,2.947,-0.183,-0.183,0.000,-4.08,1.58,-0.01
2020-06-29 10:21:09,-0.071,-0.249,2.960,-0.183,-0.244,0.183,-4.09,1.57,-0.01
2020-06-29 10:21:09,-0.090,-0.219,2.958,-0.305,-0.427,0.000,-4.10,1.57,-0.01
2020-06-29 10:21:09,-0.093,-0.188,2.947,0.000,0.000,-0.183,-4.10,1.57,-0.01
2020-06-29 10:21:09,-0.087,-0.180,2.929,0.000,0.000,0.000,-4.10,1.57,-0.01
2020-06-29 10:21:09,-0.071,-0.204,2.937,0.183,0.183,0.000,-4.09,1.57,-0.01
2020-06-29 10:21:09,-0.088,-0.212,2.934,0.000,0.000,-0.244,-4.09,1.57,-0.01
2020-06-29 10:21:09,-0.106,-0.195,2.930,0.000,0.183,0.000,-4.09,1.57,-0.01
2020-06-29 10:21:09,-0.083,-0.211,2.954,0.366,0.183,0.244,-4.08,1.58,-0.01
2020-06-29 10:21:09,-0.064,-0.218,2.949,0.000,0.000,0.000,-4.08,1.58,-0.01
2020-06-29 10:21:09,-0.068,-0.249,2.953,0.000,-0.366,0.000,-4.08,1.57,-0.01
2020-06-29 10:21:10,-0.076,-0.244,2.970,-0.183,-0.366,0.305,-4.09,1.57,-0.01
2020-06-29 10:21:10,-0.084,-0.240,2.966,-0.305,-0.244,0.000,-4.10,1.57,-0.01
2020-06-29 10:21:10,-0.086,-0.189,2.952,0.000,0.000,-0.183,-4.10,1.57,-0.01
2020-06-29 10:21:10,-0.082,-0.199,2.954,0.244,0.244,0.000,-4.10,1.57,-0.01
2020-06-29 10:21:10,-0.076,-0.202,2.943,0.000,0.244,0.000,-4.10,1.57,-0.01
2020-06-29 10:21:10,-0.087,-0.218,2.928,0.183,0.000,-0.183,-4.09,1.57,-0.01
2020-06-29 10:21:10,-0.104,-0.194,2.941,0.000,0.000,0.000,-4.09,1.57,-0.01
2020-06-29 10:21:10,-0.076,-0.208,2.961,0.305,0.366,0.000,-4.09,1.58,-0.01
2020-06-29 10:21:10,-0.068,-0.228,2.938,0.000,0.000,0.305,-4.09,1.58,-0.01
2020-06-29 10:21:10,-0.061,-0.257,2.953,0.000,-0.305,0.000,-4.09,1.57,-0.01
2020-06-29 10:21:10,-0.077,-0.240,2.972,-0.366,-0.488,0.183,-4.10,1.57,-0.01
2020-06-29 10:21:10,-0.086,-0.238,2.967,-0.183,0.000,0.000,-4.11,1.56,-0.01
2020-06-29 10:21:10,-0.089,-0.197,2.938,-0.183,0.000,0.000,-4.11,1.57,-0.01
2020-06-29 10:21:10,-0.073,-0.189,2.956,0.244,0.244,0.000,-4.11,1.57,-0.01
2020-06-29 10:21:10,-0.073,-0.206,2.949,0.000,0.000,0.000,-4.11,1.57,-0.01
2020-06-29 10:21:10,-0.090,-0.208,2.932,0.000,0.000,0.000,-4.10,1.57,-0.01
2020-06-29 10:21:10,-0.098,-0.191,2.937,0.244,0.000,0.000,-4.10,1.57,-0.01
2020-06-29 10:21:10,-0.066,-0.196,2.959,0.244,0.244,0.000,-4.10,1.57,-0.01
2020-06-29 10:21:10,-0.075,-0.225,2.937,0.000,0.000,0.305,-4.09,1.57,-0.01
2020-06-29 10:21:10,-0.059,-0.249,2.949,0.000,-0.244,0.000,-4.10,1.57,-0.01
2020-06-29 10:21:10,-0.082,-0.250,2.956,-0.366,-0.549,0.000,-4.11,1.55,-0.01
2020-06-29 10:21:10,-0.090,-0.216,2.972,-0.183,0.000,0.000,-4.11,1.55,-0.01
2020-06-29 10:21:10,-0.098,-0.210,2.935,0.000,0.000,0.000,-4.11,1.56,-0.01
2020-06-29 10:21:10,-0.076,-0.202,2.944,0.183,0.305,-0.183,-4.11,1.57,-0.01
2020-06-29 10:21:10,-0.079,-0.210,2.943,0.244,0.000,-0.244,-4.11,1.57,-0.01
2020-06-29 10:21:10,-0.101,-0.199,2.938,0.000,0.183,0.000,-4.11,1.57,-0.01
2020-06-29 10:21:10,-0.104,-0.205,2.930,0.305,0.183,0.183,-4.10,1.57,-0.01
2020-06-29 10:21:10,-0.075,-0.190,2.945,0.183,0.000,0.000,-4.10,1.58,-0.01
2020-06-29 10:21:10,-0.067,-0.223,2.948,0.000,-0.244,0.244,-4.10,1.57,-0.01
2020-06-29 10:21:10,-0.061,-0.241,2.962,-0.183,-0.305,0.305,-4.10,1.57,-0.01
2020-06-29 10:21:10,-0.088,-0.260,2.961,-0.183,-0.244,0.000,-4.11,1.56,-0.01
2020-06-29 10:21:11,-0.085,-0.202,2.974,-0.366,0.000,0.000,-4.12,1.56,-0.01
2020-06-29 10:21:11,-0.087,-0.209,2.949,0.244,0.305,0.000,-4.11,1.57,-0.01
2020-06-29 10:21:11,-0.075,-0.205,2.948,0.183,0.305,-0.183,-4.11,1.57,-0.01
2020-06-29 10:21:11,-0.080,-0.216,2.938,0.244,0.000,-0.183,-4.11,1.57,-0.01
2020-06-29 10:21:11,-0.085,-0.191,2.943,0.000,0.000,0.183,-4.11,1.57,-0.01
2020-06-29 10:21:11,-0.100,-0.212,2.927,0.305,0.244,0.000,-4.10,1.57,-0.01
2020-06-29 10:21:11,-0.075,-0.191,2.944,0.000,0.000,0.244,-4.10,1.58,-0.01
2020-06-29 10:21:11,-0.061,-0.230,2.939,0.000,-0.244,0.000,-4.10,1.57,-0.01
2020-06-29 10:21:11,-0.058,-0.245,2.956,-0.366,-0.427,0.183,-4.11,1.57,-0.01
2020-06-29 10:21:11,-0.089,-0.257,2.962,-0.305,-0.183,0.000,-4.12,1.55,-0.01
2020-06-29 10:21:11,-0.088,-0.214,2.957,-0.305,0.000,0.000,-4.13,1.56,-0.01
2020-06-29 10:21:11,-0.079,-0.199,2.950,0.000,0.244,0.000,-4.13,1.56,-0.01
2020-06-29 10:21:11,-0.068,-0.200,2.949,0.244,0.305,0.000,-4.13,1.57,-0.01
2020-06-29 10:21:11,-0.088,-0.213,2.933,0.000,0.000,0.000,-4.12,1.56,-0.01
2020-06-29 10:21:11,-0.095,-0.188,2.936,0.183,0.000,0.244,-4.12,1.57,-0.01
2020-06-29 10:21:11,-0.084,-0.193,2.937,0.244,0.000,0.000,-4.11,1.57,-0.01
2020-06-29 10:21:11,-0.069,-0.189,2.941,0.000,-0.183,0.183,-4.11,1.57,-0.01
2020-06-29 10:21:11,-0.074,-0.228,2.932,0.000,-0.183,0.183,-4.10,1.56,-0.01
2020-06-29 10:21:11,-0.063,-0.246,2.957,-0.244,-0.427,0.000,-4.11,1.55,-0.01
2020-06-29 10:21:11,-0.090,-0.252,2.963,-0.427,-0.183,0.000,-4.12,1.55,-0.01
2020-06-29 10:21:11,-0.100,-0.216,2.958,0.000,0.183,0.000,-4.13,1.55,-0.01
2020-06-29 10:21:11,-0.088,-0.207,2.947,0.183,0.488,-0.244,-4.13,1.57,-0.01
2020-06-29 10:21:11,-0.066,-0.209,2.955,0.183,0.244,-0.183,-4.13,1.57,-0.01
2020-06-29 10:21:11,-0.093,-0.211,2.938,0.183,0.000,0.000,-4.12,1.57,-0.01
2020-06-29 10:21:11,-0.104,-0.194,2.935,0.244,0.000,0.000,-4.12,1.57,-0.01
2020-06-29 10:21:11,-0.083,-0.176,2.943,0.000,0.000,0.305,-4.11,1.57,-0.01
2020-06-29 10:21:11,-0.057,-0.190,2.940,0.000,0.000,0.183,-4.11,1.57,-0.01
2020-06-29 10:21:11,-0.067,-0.222,2.943,-0.183,-0.244,0.183,-4.11,1.57,-0.01
2020-06-29 10:21:11,-0.058,-0.245,2.968,-0.244,-0.427,0.000,-4.11,1.56,-0.01
2020-06-29 10:21:11,-0.078,-0.254,2.961,-0.305,-0.183,0.000,-4.12,1.55,-0.01
2020-06-29 10:21:11,-0.086,-0.213,2.959,0.000,0.000,0.000,-4.13,1.55,-0.01
2020-06-29 10:21:11,-0.078,-0.210,2.955,0.366,0.488,0.000,-4.13,1.55,-0.01
2020-06-29 10:21:11,-0.066,-0.224,2.952,0.183,0.000,-0.183,-4.12,1.55,-0.01
2020-06-29 10:21:11,-0.095,-0.214,2.928,0.000,0.000,0.244,-4.13,1.55,-0.01
2020-06-29 10:21:11,-0.097,-0.199,2.938,0.244,0.000,0.000,-4.12,1.55,-0.01
2020-06-29 10:21:11,-0.094,-0.186,2.944,0.000,0.000,0.183,-4.12,1.56,-0.01
2020-06-29 10:21:11,-0.069,-0.196,2.929,0.000,0.000,0.183,-4.11,1.56,-0.01
2020-06-29 10:21:11,-0.071,-0.229,2.934,0.000,-0.366,0.000,-4.11,1.55,-0.01
2020-06-29 10:21:11,-0.068,-0.235,2.972,-0.366,-0.305,0.000,-4.12,1.55,-0.01
2020-06-29 10:21:11,-0.092,-0.246,2.954,-0.183,0.183,0.000,-4.13,1.55,-0.01
2020-06-29 10:21:11,-0.083,-0.204,2.961,0.000,0.183,0.000,-4.13,1.55,-0.01
2020-06-29 10:21:11,-0.073,-0.204,2.966,0.305,0.366,0.000,-4.13,1.56,-0.01
2020-06-29 10:21:11,-0.074,-0.212,2.956,0.183,0.244,0.000,-4.12,1.56,-0.01
2020-06-29 10:21:11,-0.090,-0.213,2.927,0.000,0.000,0.183,-4.12,1.56,-0.01
2020-06-29 10:21:11,-0.084,-0.178,2.944,0.000,-0.183,0.000,-4.12,1.56,-0.01
2020-06-29 10:21:11,-0.086,-0.178,2.936,0.000,0.000,0.000,-4.11,1.56,-0.01
2020-06-29 10:21:11,-0.068,-0.186,2.931,-0.183,0.000,0.305,-4.11,1.56,-0.01
2020-06-29 10:21:11,-0.071,-0.232,2.924,0.000,-0.305,0.000,-4.10,1.55,-0.01
2020-06-29 10:21:11,-0.062,-0.238,2.964,-0.427,-0.244,-0.183,-4.11,1.55,-0.01
2020-06-29 10:21:11,-0.102,-0.229,2.952,-0.244,0.000,0.000,-4.12,1.55,-0.01
2020-06-29 10:21:11,-0.086,-0.214,2.948,0.000,0.366,-0.183,-4.13,1.55,-0.01
2020-06-29 10:21:11,-0.081,-0.216,2.950,0.305,0.305,-0.183,-4.12,1.56,-0.01
2020-06-29 10:21:11,-0.075,-0.213,2.953,0.183,0.183,0.000,-4.12,1.56,-0.01
2020-06-29 10:21:11,-0.095,-0.209,2.938,0.183,0.000,0.000,-4.12,1.56,-0.01
2020-06-29 10:21:11,-0.095,-0.194,2.942,0.000,0.000,0.244,-4.12,1.57,-0.01
2020-06-29 10:21:11,-0.093,-0.176,2.935,0.000,0.000,0.000,-4.11,1.57,-0.01
2020-06-29 10:21:11,-0.058,-0.184,2.948,0.000,0.000,0.000,-4.11,1.57,-0.01
2020-06-29 10:21:11,-0.076,-0.223,2.930,-0.183,-0.366,0.000,-4.10,1.56,-0.01
2020-06-29 10:21:11,-0.070,-0.247,2.961,0.000,0.000,0.000,-4.11,1.56,-0.01
2020-06-29 10:21:11,-0.095,-0.220,2.962,-0.366,0.000,0.000,-4.12,1.56,-0.01
2020-06-29 10:21:11,-0.081,-0.220,2.962,0.183,0.488,0.000,-4.11,1.57,-0.01
2020-06-29 10:21:11,-0.087,-0.225,2.949,0.183,0.366,0.000,-4.11,1.57,-0.01
2020-06-29 10:21:11,-0.069,-0.220,2.949,0.244,0.000,0.183,-4.11,1.57,-0.01
2020-06-29 10:21:11,-0.088,-0.204,2.945,0.000,-0.244,0.000,-4.12,1.57,-0.01
2020-06-29 10:21:11,-0.100,-0.196,2.939,0.183,0.000,0.000,-4.11,1.57,-0.01
2020-06-29 10:21:11,-0.089,-0.177,2.930,0.000,0.000,0.183,-4.11,1.57,-0.01
2020-06-29 10:21:11,-0.057,-0.179,2.931,0.000,-0.183,0.000,-4.10,1.57,-0.01
2020-06-29 10:21:11,-0.066,-0.229,2.937,-0.244,-0.305,0.000,-4.10,1.56,-0.01
2020-06-29 10:21:11,-0.076,-0.227,2.954,-0.244,0.000,0.000,-4.11,1.56,-0.01
2020-06-29 10:21:11,-0.089,-0.228,2.947,-0.183,0.000,0.000,-4.11,1.56,-0.01
2020-06-29 10:21:11,-0.072,-0.203,2.967,0.183,0.366,0.000,-4.11,1.57,-0.01
2020-06-29 10:21:11,-0.076,-0.237,2.953,0.305,0.366,0.000,-4.11,1.57,-0.01
2020-06-29 10:21:11,-0.077,-0.217,2.950,0.000,0.000,0.000,-4.11,1.57,-0.01
2020-06-29 10:21:11,-0.090,-0.220,2.940,0.000,-0.183,0.244,-4.11,1.56,-0.01
2020-06-29 10:21:11,-0.099,-0.176,2.944,0.000,0.000,0.183,-4.11,1.57,-0.01
2020-06-29 10:21:11,-0.084,-0.190,2.935,0.000,0.000,0.183,-4.11,1.57,-0.01
2020-06-29 10:21:11,-0.084,-0.175,2.923,-0.183,0.000,0.000,-4.10,1.57,-0.01
2020-06-29 10:21:11,-0.060,-0.234,2.940,0.000,0.000,0.000,-4.10,1.57,-0.01
2020-06-29 10:21:11,-0.091,-0.224,2.947,-0.366,-0.183,0.000,-4.11,1.57,-0.01
2020-06-29 10:21:11,-0.101,-0.228,2.947,0.000,0.488,0.000,-4.11,1.57,-0.01
2020-06-29 10:21:11,-0.082,-0.206,2.963,0.183,0.305,-0.244,-4.11,1.58,-0.01
2020-06-29 10:21:11,-0.065,-0.230,2.953,0.244,0.366,0.183,-4.11,1.58,-0.01
2020-06-29 10:21:11,-0.084,-0.220,2.951,0.000,-0.183,0.000,-4.11,1.58,-0.01
2020-06-29 10:21:11,-0.096,-0.220,2.950,0.000,0.000,0.183,-4.11,1.58,-0.01
2020-06-29 10:21:11,-0.089,-0.174,2.951,-0.183,-0.305,0.000,-4.11,1.58,-0.01
2020-06-29 10:21:11,-0.074,-0.184,2.931,0.183,0.000,0.000,-4.11,1.58,-0.01
2020-06-29 10:21:11,-0.073,-0.187,2.933,-0.244,-0.244,0.000,-4.10,1.57,-0.01
2020-06-29 10:21:11,-0.062,-0.219,2.952,0.000,0.000,0.000,-4.10,1.57,-0.01
2020-06-29 10:21:11,-0.081,-0.233,2.948,-0.183,0.000,-0.183,-4.10,1.57,-0.01
2020-06-29 10:21:11,-0.100,-0.212,2.943,0.000,0.366,0.000,-4.11,1.57,-0.01
2020-06-29 10:21:11,-0.071,-0.216,2.965,0.366,0.427,0.000,-4.10,1.58,-0.01
2020-06-29 10:21:11,-0.068,-0.232,2.948,0.183,0.244,0.000,-4.10,1.58,-0.01
2020-06-29 10:21:11,-0.075,-0.237,2.946,0.000,-0.244,0.183,-4.10,1.58,-0.01
2020-06-29 10:21:11,-0.094,-0.213,2.955,0.000,-0.244,0.305,-4.11,1.57,-0.01
2020-06-29 10:21:11,-0.086,-0.205,2.944,-0.183,0.000,0.000,-4.11,1.58,-0.01
2020-06-29 10:21:11,-0.083,-0.170,2.925,0.000,0.000,0.000,-4.11,1.58,-0.01
2020-06-29 10:21:11,-0.065,-0.212,2.928,0.000,0.000,0.000,-4.10,1.58,-0.01
2020-06-29 10:21:11,-0.077,-0.210,2.950,-0.244,0.000,0.000,-4.10,1.57,-0.01
2020-06-29 10:21:11,-0.085,-0.230,2.944,0.000,0.183,0.000,-4.10,1.57,-0.01
2020-06-29 10:21:11,-0.099,-0.207,2.950,0.000,0.244,-0.366,-4.11,1.58,-0.01
2020-06-29 10:21:11,-0.061,-0.214,2.968,0.305,0.427,0.244,-4.10,1.58,-0.01
2020-06-29 10:21:11,-0.084,-0.221,2.953,0.000,0.000,0.000,-4.10,1.58,-0.01
2020-06-29 10:21:11,-0.076,-0.242,2.953,0.000,0.000,0.000,-4.11,1.58,-0.01
2020-06-29 10:21:11,-0.099,-0.198,2.952,-0.183,-0.427,0.244,-4.11,1.58,-0.01
2020-06-29 10:21:11,-0.083,-0.188,2.953,0.000,0.000,0.183,-4.11,1.58,-0.01
2020-06-29 10:21:11,-0.092,-0.169,2.929,-0.244,0.000,-0.183,-4.11,1.58,-0.01
2020-06-29 10:21:11,-0.069,-0.196,2.926,0.000,0.000,0.000,-4.10,1.58,-0.01
2020-06-29 10:21:11,-0.075,-0.214,2.940,0.000,0.000,0.000,-4.10,1.58,-0.01
2020-06-29 10:21:11,-0.099,-0.215,2.940,0.000,0.244,0.000,-4.10,1.58,-0.01
2020-06-29 10:21:11,-0.094,-0.209,2.945,0.183,0.305,0.000,-4.10,1.59,-0.01
2020-06-29 10:21:11,-0.067,-0.221,2.954,0.305,0.305,0.183,-4.09,1.59,-0.01
2020-06-29 10:21:11,-0.071,-0.227,2.955,0.000,0.000,0.000,-4.10,1.59,-0.01
2020-06-29 10:21:11,-0.078,-0.230,2.961,0.000,-0.305,0.000,-4.10,1.58,-0.01
2020-06-29 10:21:11,-0.099,-0.226,2.945,-0.244,-0.244,0.183,-4.10,1.58,-0.01
2020-06-29 10:21:11,-0.081,-0.162,2.953,-0.183,-0.183,0.000,-4.11,1.58,-0.01
2020-06-29 10:21:11,-0.077,-0.181,2.927,0.000,0.000,-0.183,-4.10,1.58,-0.01
2020-06-29 10:21:11,-0.070,-0.192,2.940,0.000,0.000,-0.183,-4.09,1.58,-0.01
2020-06-29 10:21:11,-0.074,-0.229,2.942,0.000,0.000,0.000,-4.09,1.58,-0.01
2020-06-29 10:21:11,-0.098,-0.204,2.944,0.000,0.000,-0.366,-4.09,1.58,-0.01
2020-06-29 10:21:11,-0.081,-0.226,2.947,0.305,0.305,0.000,-4.09,1.58,-0.01
2020-06-29 10:21:11,-0.080,-0.221,2.954,0.000,0.000,0.000,-4.09,1.58,-0.01
2020-06-29 10:21:11,-0.063,-0.250,2.955,0.000,0.000,0.183,-4.09,1.58,-0.01
2020-06-29 10:21:11,-0.078,-0.229,2.958,-0.244,-0.610,0.000,-4.10,1.57,-0.01
2020-06-29 10:21:11,-0.093,-0.235,2.948,0.000,-0.183,0.244,-4.11,1.57,-0.01
2020-06-29 10:21:11,-0.090,-0.174,2.946,-0.244,-0.183,0.000,-4.11,1.57,-0.01
2020-06-29 10:21:11,-0.068,-0.183,2.934,0.244,0.000,0.000,-4.10,1.57,-0.01
2020-06-29 10:21:11,-0.072,-0.196,2.939,0.000,0.000,0.000,-4.10,1.57,-0.01
2020-06-29 10:21:11,-0.084,-0.218,2.939,0.000,0.000,0.000,-4.10,1.57,-0.01
2020-06-29 10:21:11,-0.101,-0.199,2.939,0.000,0.000,0.000,-4.10,1.57,-0.01
2020-06-29 10:21:11,-0.077,-0.206,2.955,0.366,0.305,0.000,-4.09,1.58,-0.01
2020-06-29 10:21:11,-0.073,-0.222,2.959,0.000,0.000,0.000,-4.09,1.58,-0.01
2020-06-29 10:21:11,-0.073,-0.241,2.948,0.000,0.000,0.183,-4.09,1.57,-0.01
2020-06-29 10:21:11,-0.080,-0.241,2.961,0.000,-0.366,0.000,-4.10,1.57,-0.01
2020-06-29 10:21:11,-0.086,-0.212,2.959,-0.183,-0.183,0.000,-4.10,1.57,-0.01
2020-06-29 10:21:11,-0.097,-0.184,2.940,0.000,0.000,0.000,-4.10,1.57,-0.01
2020-06-29 10:21:11,-0.082,-0.172,2.930,0.000,0.244,0.000,-4.10,1.57,-0.01
2020-06-29 10:21:11,-0.074,-0.217,2.935,0.183,0.000,0.000,-4.09,1.57,-0.01
2020-06-29 10:21:11,-0.090,-0.203,2.938,-0.183,0.000,-0.183,-4.09,1.57,-0.01
2020-06-29 10:21:11,-0.104,-0.218,2.932,0.244,0.183,0.000,-4.09,1.58,-0.01
2020-06-29 10:21:11,-0.078,-0.193,2.960,0.000,0.305,0.183,-4.09,1.58,-0.01
2020-06-29 10:21:11,-0.061,-0.241,2.945,0.183,0.000,0.000,-4.09,1.58,-0.01
2020-06-29 10:21:11,-0.068,-0.230,2.957,-0.244,-0.366,0.244,-4.09,1.58,-0.01
2020-06-29 10:21:11,-0.077,-0.256,2.966,0.000,-0.305,0.183,-4.10,1.57,-0.01
2020-06-29 10:21:11,-0.081,-0.205,2.969,-0.488,-0.244,0.000,-4.11,1.57,-0.01
2020-06-29 10:21:11,-0.079,-0.206,2.943,0.000,0.183,0.000,-4.11,1.57,-0.01
2020-06-29 10:21:11,-0.077,-0.175,2.948,0.000,0.183,0.000,-4.11,1.57,-0.01
2020-06-29 10:21:11,-0.068,-0.219,2.938,0.183,0.305,-0.244,-4.10,1.57,-0.01
2020-06-29 10:21:11,-0.089,-0.204,2.927,0.000,0.000,0.000,-4.10,1.57,-0.01
2020-06-29 10:21:11,-0.100,-0.213,2.930,0.305,0.244,0.000,-4.10,1.57,-0.01
2020-06-29 10:21:11,-0.077,-0.198,2.959,0.000,0.244,0.000,-4.10,1.58,-0.01
2020-06-29 10:21:11,-0.072,-0.247,2.937,0.000,0.000,0.000,-4.10,1.58,-0.01
2020-06-29 10:21:11,-0.064,-0.247,2.951,-0.183,-0.488,0.244,-4.10,1.57,-0.01
2020-06-29 10:21:11,-0.083,-0.251,2.964,-0.244,-0.427,0.000,-4.11,1.57,-0.01
2020-06-29 10:21:11,-0.090,-0.219,2.970,-0.305,0.000,0.000,-4.13,1.57,-0.01
2020-06-29 10:21:11,-0.093,-0.194,2.930,0.000,0.000,0.000,-4.13,1.57,-0.01
2020-06-29 10:21:11,-0.075,-0.198,2.948,0.305,0.000,0.000,-4.12,1.57,-0.01
2020-06-29 10:21:11,-0.080,-0.204,2.945,0.000,0.183,0.000,-4.11,1.57,-0.01
2020-06-29 10:21:11,-0.094,-0.207,2.935,0.244,0.000,0.000,-4.11,1.57,-0.01
2020-06-29 10:21:11,-0.105,-0.194,2.933,0.244,0.000,0.183,-4.11,1.57,-0.01
2020-06-29 10:21:11,-0.066,-0.199,2.960,0.305,0.183,0.000,-4.10,1.58,-0.01
2020-06-29 10:21:11,-0.078,-0.222,2.942,0.000,0.000,0.000,-4.10,1.58,-0.01
2020-06-29 10:21:11,-0.055,-0.253,2.959,0.000,-0.244,0.244,-4.10,1.57,-0.01
2020-06-29 10:21:11,-0.086,-0.248,2.956,-0.488,-0.427,0.000,-4.11,1.56,-0.01
2020-06-29 10:21:11,-0.081,-0.219,2.973,-0.183,0.000,0.000,-4.12,1.57,-0.01
2020-06-29 10:21:11,-0.091,-0.194,2.944,0.000,0.183,0.000,-4.13,1.57,-0.01
2020-06-29 10:21:11,-0.069,-0.213,2.940,0.305,0.427,0.000,-4.11,1.57,-0.01
2020-06-29 10:21:11,-0.078,-0.204,2.938,0.000,0.000,-0.183,-4.11,1.57,-0.01
2020-06-29 10:21:12,-0.090,-0.203,2.939,0.244,0.000,0.000,-4.11,1.57,-0.01
2020-06-29 10:21:12,-0.105,-0.201,2.932,0.183,0.244,0.000,-4.11,1.57,-0.01
2020-06-29 10:21:12,-0.067,-0.205,2.944,0.183,0.000,0.183,-4.10,1.58,-0.01
2020-06-29 10:21:12,-0.062,-0.227,2.946,0.000,-0.366,0.000,-4.10,1.57,-0.01
2020-06-29 10:21:12,-0.059,-0.245,2.965,-0.305,-0.305,0.244,-4.11,1.57,-0.01
2020-06-29 10:21:12,-0.093,-0.260,2.959,-0.366,-0.244,0.000,-4.12,1.56,-0.01
2020-06-29 10:21:12,-0.088,-0.209,2.964,-0.305,0.000,0.000,-4.13,1.56,-0.01
2020-06-29 10:21:12,-0.084,-0.196,2.946,0.000,0.183,0.000,-4.13,1.57,-0.01
2020-06-29 10:21:12,-0.075,-0.216,2.948,0.305,0.366,0.000,-4.13,1.57,-0.01
2020-06-29 10:21:12,-0.089,-0.216,2.930,0.000,0.000,0.000,-4.13,1.57,-0.01
2020-06-29 10:21:12,-0.094,-0.190,2.942,0.305,0.000,0.000,-4.13,1.57,-0.01
2020-06-29 10:21:12,-0.097,-0.205,2.937,0.305,0.244,0.000,-4.11,1.57,-0.01
2020-06-29 10:21:12,-0.074,-0.194,2.945,0.000,0.000,0.183,-4.11,1.58,-0.01
2020-06-29 10:21:12,-0.067,-0.228,2.939,0.000,-0.244,0.000,-4.11,1.57,-0.01
2020-06-29 10:21:12,-0.063,-0.244,2.962,-0.305,-0.488,0.000,-4.12,1.57,-0.01
2020-06-29 10:21:12,-0.086,-0.247,2.965,-0.305,-0.183,0.000,-4.13,1.56,-0.01
2020-06-29 10:21:12,-0.094,-0.214,2.953,-0.244,0.000,0.000,-4.14,1.56,-0.01
2020-06-29 10:21:12,-0.080,-0.201,2.946,0.305,0.427,0.000,-4.13,1.57,-0.01
2020-06-29 10:21:12,-0.062,-0.205,2.953,0.244,0.244,0.000,-4.13,1.57,-0.01
2020-06-29 10:21:12,-0.090,-0.209,2.934,0.183,0.000,0.183,-4.13,1.57,-0.01
2020-06-29 10:21:12,-0.096,-0.198,2.931,0.244,0.000,0.000,-4.12,1.57,-0.01
2020-06-29 10:21:12,-0.081,-0.183,2.939,0.183,0.000,0.244,-4.11,1.57,-0.01
2020-06-29 10:21:12,-0.057,-0.193,2.945,0.000,-0.183,0.183,-4.11,1.57,-0.01
2020-06-29 10:21:12,-0.071,-0.230,2.938,-0.183,-0.183,0.183,-4.11,1.56,-0.01
2020-06-29 10:21:12,-0.062,-0.247,2.966,-0.366,-0.427,0.000,-4.11,1.55,-0.01
2020-06-29 10:21:12,-0.082,-0.251,2.960,-0.305,0.000,0.000,-4.13,1.55,-0.01
2020-06-29 10:21:12,-0.095,-0.216,2.954,-0.183,0.000,0.000,-4.14,1.55,-0.01
2020-06-29 10:21:12,-0.088,-0.208,2.953,0.244,0.427,0.000,-4.13,1.56,-0.01
2020-06-29 10:21:12,-0.063,-0.221,2.956,0.183,0.000,-0.183,-4.13,1.56,-0.01
2020-06-29 10:21:12,-0.096,-0.215,2.934,0.000,0.000,0.000,-4.13,1.56,-0.01
2020-06-29 10:21:12,-0.104,-0.195,2.931,0.244,0.000,0.000,-4.13,1.56,-0.01
2020-06-29 10:21:12,-0.087,-0.189,2.945,0.000,0.000,0.000,-4.13,1.57,-0.01
2020-06-29 10:21:12,-0.061,-0.189,2.934,0.000,0.000,0.305,-4.12,1.57,-0.01
2020-06-29 10:21:12,-0.076,-0.226,2.940,0.000,-0.305,0.000,-4.12,1.56,-0.01
2020-06-29 10:21:12,-0.065,-0.241,2.969,-0.366,-0.366,0.000,-4.13,1.55,-0.01
2020-06-29 10:21:12,-0.095,-0.239,2.954,-0.427,0.000,0.000,-4.13,1.55,-0.01
2020-06-29 10:21:12,-0.085,-0.197,2.960,0.000,0.244,0.000,-4.14,1.56,-0.01
2020-06-29 10:21:12,-0.081,-0.200,2.959,0.183,0.427,-0.183,-4.13,1.57,-0.01
2020-06-29 10:21:12,-0.075,-0.204,2.950,0.244,0.305,0.000,-4.13,1.57,-0.01
2020-06-29 10:21:12,-0.099,-0.211,2.935,0.000,0.000,0.000,-4.13,1.57,-0.01
2020-06-29 10:21:12,-0.085,-0.178,2.944,0.244,0.000,0.183,-4.13,1.57,-0.01
2020-06-29 10:21:12,-0.086,-0.181,2.940,0.000,0.000,0.000,-4.11,1.57,-0.01
2020-06-29 10:21:12,-0.070,-0.187,2.929,0.000,0.000,0.244,-4.11,1.57,-0.01
2020-06-29 10:21:12,-0.066,-0.239,2.930,-0.183,-0.366,0.000,-4.11,1.57,-0.01
2020-06-29 10:21:12,-0.063,-0.237,2.964,-0.427,-0.305,0.000,-4.12,1.56,-0.01
2020-06-29 10:21:12,-0.096,-0.239,2.956,-0.244,0.000,0.000,-4.13,1.55,-0.01
2020-06-29 10:21:12,-0.084,-0.218,2.950,0.000,0.305,0.000,-4.13,1.56,-0.01
2020-06-29 10:21:12,-0.068,-0.216,2.954,0.183,0.305,0.000,-4.13,1.57,-0.01
2020-06-29 10:21:12,-0.075,-0.225,2.954,0.244,0.183,0.000,-4.13,1.57,-0.01
2020-06-29 10:21:12,-0.093,-0.214,2.935,0.000,0.000,0.000,-4.13,1.57,-0.01
2020-06-29 10:21:12,-0.085,-0.194,2.943,0.000,0.000,0.244,-4.13,1.57,-0.01
2020-06-29 10:21:12,-0.091,-0.181,2.935,0.000,0.000,0.183,-4.13,1.57,-0.01
2020-06-29 10:21:12,-0.060,-0.190,2.946,0.000,0.000,0.000,-4.12,1.57,-0.01
2020-06-29 10:21:12,-0.076,-0.233,2.933,-0.183,-0.366,0.000,-4.11,1.56,-0.01
2020-06-29 10:21:12,-0.073,-0.248,2.964,-0.244,0.000,-0.183,-4.13,1.56,-0.01
2020-06-29 10:21:12,-0.098,-0.220,2.957,-0.305,0.000,0.000,-4.13,1.56,-0.01
2020-06-29 10:21:12,-0.091,-0.217,2.961,0.244,0.488,-0.183,-4.13,1.57,-0.01
2020-06-29 10:21:12,-0.083,-0.220,2.948,0.244,0.366,0.000,-4.13,1.57,-0.01
2020-06-29 10:21:12,-0.080,-0.210,2.951,0.183,0.000,0.000,-4.13,1.57,-0.01
2020-06-29 10:21:12,-0.088,-0.200,2.944,0.000,0.000,0.183,-4.13,1.57,-0.01
2020-06-29 10:21:12,-0.105,-0.195,2.938,0.000,0.000,0.000,-4.13,1.58,-0.01
2020-06-29 10:21:12,-0.088,-0.170,2.926,0.000,0.000,0.305,-4.13,1.58,-0.01
2020-06-29 10:21:12,-0.057,-0.182,2.940,0.000,-0.244,0.000,-4.11,1.58,-0.01
2020-06-29 10:21:12,-0.065,-0.222,2.935,-0.183,-0.183,0.000,-4.11,1.57,-0.01
2020-06-29 10:21:12,-0.075,-0.230,2.953,-0.305,0.000,0.000,-4.11,1.57,-0.01
2020-06-29 10:21:12,-0.086,-0.219,2.950,-0.183,0.000,0.000,-4.12,1.57,-0.01
2020-06-29 10:21:12,-0.067,-0.206,2.966,0.183,0.427,-0.183,-4.12,1.57,-0.01
2020-06-29 10:21:12,-0.078,-0.233,2.951,0.305,0.488,0.183,-4.11,1.58,-0.01
2020-06-29 10:21:12,-0.073,-0.222,2.945,0.000,0.000,0.000,-4.12,1.57,-0.01
2020-06-29 10:21:12,-0.084,-0.213,2.941,0.000,-0.183,0.000,-4.12,1.57,-0.01
2020-06-29 10:21:12,-0.096,-0.189,2.947,0.000,0.000,0.244,-4.12,1.57,-0.01
2020-06-29 10:21:12,-0.088,-0.189,2.926,0.000,0.000,0.000,-4.12,1.58,-0.01
2020-06-29 10:21:12,-0.071,-0.190,2.925,0.000,-0.244,0.000,-4.11,1.57,-0.01
2020-06-29 10:21:12,-0.064,-0.238,2.944,0.000,0.000,-0.183,-4.11,1.57,-0.01
2020-06-29 10:21:12,-0.087,-0.237,2.951,-0.366,0.000,0.000,-4.12,1.57,-0.01
2020-06-29 10:21:12,-0.108,-0.225,2.950,0.000,0.366,0.000,-4.13,1.57,-0.01
2020-06-29 10:21:12,-0.079,-0.206,2.967,0.183,0.427,0.000,-4.13,1.58,-0.01
2020-06-29 10:21:12,-0.075,-0.230,2.958,0.305,0.305,0.000,-4.12,1.58,-0.01
2020-06-29 10:21:12,-0.081,-0.218,2.945,0.000,0.000,0.244,-4.12,1.58,-0.01
2020-06-29 10:21:12,-0.103,-0.215,2.950,0.000,-0.183,0.000,-4.13,1.58,-0.01
2020-06-29 10:21:12,-0.088,-0.171,2.950,0.000,-0.244,0.305,-4.13,1.58,-0.01
2020-06-29 10:21:12,-0.075,-0.174,2.933,0.000,0.000,0.000,-4.11,1.58,-0.01
2020-06-29 10:21:12,-0.075,-0.180,2.925,0.000,-0.244,0.000,-4.11,1.58,-0.01
2020-06-29 10:21:12,-0.064,-0.219,2.944,0.000,-0.183,0.000,-4.10,1.58,-0.01
2020-06-29 10:21:12,-0.076,-0.224,2.942,-0.183,0.000,0.000,-4.11,1.58,-0.01
2020-06-29 10:21:12,-0.104,-0.218,2.944,0.000,0.183,0.000,-4.11,1.58,-0.01
2020-06-29 10:21:12,-0.077,-0.206,2.964,0.366,0.427,0.000,-4.11,1.58,-0.01
2020-06-29 10:21:12,-0.065,-0.233,2.949,0.244,0.000,0.000,-4.10,1.58,-0.01
2020-06-29 10:21:12,-0.080,-0.224,2.943,0.000,-0.183,0.000,-4.11,1.58,-0.01
2020-06-29 10:21:12,-0.096,-0.214,2.955,0.000,-0.183,0.183,-4.11,1.58,-0.01
2020-06-29 10:21:12,-0.089,-0.188,2.941,0.000,0.000,0.000,-4.11,1.58,-0.01
2020-06-29 10:21:12,-0.076,-0.182,2.927,0.000,0.000,0.000,-4.10,1.58,-0.01
2020-06-29 10:21:12,-0.067,-0.202,2.927,0.000,0.000,-0.183,-4.10,1.58,-0.01
2020-06-29 10:21:12,-0.067,-0.227,2.956,-0.183,0.000,0.000,-4.10,1.58,-0.01
2020-06-29 10:21:12,-0.088,-0.237,2.950,0.000,0.000,0.000,-4.10,1.57,-0.01
2020-06-29 10:21:12,-0.094,-0.215,2.951,0.000,0.305,0.000,-4.11,1.58,-0.01
2020-06-29 10:21:12,-0.066,-0.221,2.976,0.305,0.366,0.183,-4.10,1.58,-0.01
2020-06-29 10:21:12,-0.080,-0.230,2.953,0.000,0.183,0.244,-4.11,1.58,-0.01
2020-06-29 10:21:12,-0.078,-0.237,2.957,0.000,-0.183,0.000,-4.11,1.58,-0.01
2020-06-29 10:21:13,-0.095,-0.203,2.958,0.000,-0.244,0.366,-4.11,1.58,-0.01
2020-06-29 10:21:13,-0.087,-0.189,2.948,0.000,0.000,0.000,-4.11,1.58,-0.01
2020-06-29 10:21:13,-0.092,-0.163,2.925,0.000,0.000,0.000,-4.11,1.58,-0.01
2020-06-29 10:21:13,-0.068,-0.201,2.925,0.000,0.000,-0.183,-4.10,1.58,-0.01
2020-06-29 10:21:13,-0.072,-0.209,2.942,-0.183,0.000,0.000,-4.10,1.58,-0.01
2020-06-29 10:21:13,-0.102,-0.219,2.941,0.000,0.000,-0.183,-4.10,1.58,-0.01
2020-06-29 10:21:13,-0.092,-0.203,2.944,0.183,0.305,0.000,-4.10,1.59,-0.01
2020-06-29 10:21:13,-0.063,-0.222,2.958,0.305,0.183,0.000,-4.09,1.59,-0.01
2020-06-29 10:21:13,-0.074,-0.215,2.954,0.000,0.000,0.244,-4.10,1.59,-0.01
2020-06-29 10:21:13,-0.077,-0.237,2.959,0.000,-0.244,0.000,-4.10,1.58,-0.01
2020-06-29 10:21:13,-0.095,-0.211,2.943,-0.244,-0.305,0.183,-4.10,1.58,-0.01
2020-06-29 10:21:13,-0.078,-0.170,2.953,0.000,-0.244,0.000,-4.10,1.58,-0.01
2020-06-29 10:21:13,-0.082,-0.176,2.927,0.000,0.000,0.000,-4.10,1.58,-0.01
2020-06-29 10:21:13,-0.066,-0.202,2.936,0.000,0.000,0.000,-4.09,1.58,-0.01
2020-06-29 10:21:13,-0.074,-0.226,2.938,0.000,0.000,0.000,-4.09,1.58,-0.01
2020-06-29 10:21:13,-0.097,-0.214,2.944,0.000,0.000,0.000,-4.09,1.57,-0.01
2020-06-29 10:21:13,-0.086,-0.227,2.947,0.305,0.305,0.000,-4.09,1.58,-0.01
2020-06-29 10:21:13,-0.077,-0.226,2.957,0.183,0.183,0.000,-4.09,1.58,-0.01
2020-06-29 10:21:13,-0.069,-0.253,2.951,0.000,0.000,0.000,-4.09,1.58,-0.01
2020-06-29 10:21:13,-0.080,-0.232,2.963,-0.183,-0.427,0.244,-4.10,1.58,-0.01
2020-06-29 10:21:13,-0.102,-0.234,2.946,0.000,0.000,0.000,-4.10,1.58,-0.01
2020-06-29 10:21:13,-0.094,-0.177,2.952,0.000,0.000,0.000,-4.11,1.58,-0.01
2020-06-29 10:21:13,-0.075,-0.184,2.936,0.000,0.000,0.000,-4.10,1.58,-0.01
2020-06-29 10:21:13,-0.073,-0.199,2.944,0.000,0.000,0.000,-4.10,1.58,-0.01
2020-06-29 10:21:13,-0.088,-0.223,2.944,0.000,0.000,-0.183,-4.10,1.58,-0.01
2020-06-29 10:21:13,-0.095,-0.192,2.939,0.000,0.244,0.000,-4.10,1.58,-0.01
2020-06-29 10:21:13,-0.075,-0.213,2.955,0.366,0.244,0.000,-4.09,1.59,-0.01
2020-06-29 10:21:13,-0.075,-0.217,2.962,0.000,0.000,0.183,-4.09,1.59,-0.01
2020-06-29 10:21:13,-0.066,-0.246,2.952,0.000,-0.183,0.183,-4.09,1.58,-0.01
2020-06-29 10:21:13,-0.073,-0.235,2.962,-0.244,-0.549,0.305,-4.10,1.58,-0.01
2020-06-29 10:21:13,-0.081,-0.219,2.956,0.000,-0.305,0.000,-4.10,1.57,-0.01
2020-06-29 10:21:13,-0.091,-0.182,2.941,-0.183,0.000,0.000,-4.11,1.57,-0.01
2020-06-29 10:21:13,-0.075,-0.185,2.929,0.000,0.183,0.000,-4.10,1.57,-0.01
2020-06-29 10:21:13,-0.067,-0.213,2.936,0.000,0.000,0.000,-4.10,1.57,-0.01
2020-06-29 10:21:13,-0.086,-0.218,2.933,0.000,0.000,-0.366,-4.10,1.57,-0.01
2020-06-29 10:21:13,-0.099,-0.210,2.930,0.000,0.000,0.000,-4.10,1.57,-0.01
2020-06-29 10:21:13,-0.077,-0.212,2.954,0.244,0.183,0.000,-4.10,1.58,-0.01
2020-06-29 10:21:13,-0.059,-0.233,2.951,0.000,0.000,0.000,-4.10,1.58,-0.01
2020-06-29 10:21:13,-0.069,-0.242,2.954,0.000,-0.305,0.000,-4.10,1.57,-0.01
2020-06-29 10:21:13,-0.081,-0.256,2.961,0.000,-0.244,0.183,-4.11,1.56,-0.01
2020-06-29 10:21:13,-0.084,-0.216,2.969,-0.488,-0.305,0.000,-4.12,1.56,-0.01
2020-06-29 10:21:13,-0.088,-0.206,2.943,0.000,0.000,0.000,-4.12,1.56,-0.01
2020-06-29 10:21:13,-0.081,-0.187,2.952,0.000,0.183,0.000,-4.12,1.57,-0.01
2020-06-29 10:21:13,-0.077,-0.214,2.941,0.183,0.183,0.000,-4.11,1.57,-0.01
2020-06-29 10:21:13,-0.087,-0.209,2.933,0.000,0.000,0.000,-4.11,1.57,-0.01
2020-06-29 10:21:13,-0.107,-0.205,2.937,0.305,0.183,0.000,-4.11,1.57,-0.01
2020-06-29 10:21:13,-0.079,-0.197,2.966,0.244,0.366,0.305,-4.10,1.58,-0.01
2020-06-29 10:21:13,-0.075,-0.234,2.937,0.000,0.000,0.000,-4.10,1.58,-0.01
2020-06-29 10:21:13,-0.065,-0.245,2.955,0.000,-0.427,0.183,-4.11,1.57,-0.01
2020-06-29 10:21:13,-0.086,-0.239,2.967,-0.183,-0.366,0.000,-4.11,1.57,-0.01
2020-06-29 10:21:13,-0.085,-0.221,2.970,-0.244,0.000,0.000,-4.13,1.57,-0.01
2020-06-29 10:21:13,-0.093,-0.188,2.933,0.000,0.000,0.000,-4.13,1.57,-0.01
2020-06-29 10:21:13,-0.070,-0.189,2.950,0.366,0.244,0.000,-4.11,1.57,-0.01
2020-06-29 10:21:13,-0.077,-0.199,2.945,0.000,0.000,-0.183,-4.11,1.57,-0.01
2020-06-29 10:21:13,-0.087,-0.202,2.928,0.183,0.183,0.000,-4.11,1.57,-0.01
2020-06-29 10:21:13,-0.104,-0.193,2.936,0.305,0.000,0.000,-4.10,1.57,-0.01
2020-06-29 10:21:13,-0.064,-0.196,2.959,0.244,0.183,0.244,-4.10,1.58,-0.01
2020-06-29 10:21:13,-0.078,-0.227,2.941,0.000,-0.183,0.244,-4.09,1.57,-0.01
2020-06-29 10:21:13,-0.055,-0.247,2.956,0.000,-0.305,0.183,-4.10,1.57,-0.01
2020-06-29 10:21:13,-0.087,-0.251,2.955,-0.488,-0.610,0.000,-4.11,1.55,-0.01
2020-06-29 10:21:13,-0.083,-0.208,2.965,-0.183,0.000,0.183,-4.12,1.56,-0.01
2020-06-29 10:21:13,-0.093,-0.208,2.938,0.000,0.000,0.000,-4.11,1.56,-0.01
2020-06-29 10:21:13,-0.073,-0.201,2.938,0.183,0.366,0.000,-4.11,1.57,-0.01
2020-06-29 10:21:13,-0.078,-0.213,2.940,0.000,0.000,0.000,-4.11,1.57,-0.01
2020-06-29 10:21:13,-0.078,-0.213,2.940,0.000,0.000,0.000,-4.11,1.56,-0.01
2020-06-29 10:21:13,-0.095,-0.196,2.937,0.000,0.000,0.000,-4.11,1.56,-0.01
2020-06-29 10:21:13,-0.101,-0.213,2.930,0.244,0.244,0.000,-4.11,1.57,-0.01
2020-06-29 10:21:13,-0.072,-0.196,2.941,0.183,0.000,0.000,-4.10,1.57,-0.01
2020-06-29 10:21:13,-0.063,-0.234,2.948,0.000,-0.244,0.000,-4.10,1.57,-0.01
2020-06-29 10:21:13,-0.058,-0.239,2.964,-0.305,-0.366,0.000,-4.11,1.56,-0.01
2020-06-29 10:21:13,-0.092,-0.266,2.958,-0.244,-0.183,0.000,-4.12,1.55,-0.01
2020-06-29 10:21:13,-0.091,-0.209,2.971,-0.305,0.000,0.000,-4.13,1.55,-0.01
2020-06-29 10:21:13,-0.088,-0.207,2.954,0.183,0.366,0.000,-4.13,1.56,-0.01
2020-06-29 10:21:13,-0.081,-0.209,2.948,0.305,0.427,-0.305,-4.13,1.57,-0.01
2020-06-29 10:21:13,-0.087,-0.213,2.933,0.183,0.000,0.000,-4.12,1.57,-0.01
2020-06-29 10:21:13,-0.096,-0.187,2.945,0.305,0.000,0.000,-4.12,1.57,-0.01
2020-06-29 10:21:13,-0.098,-0.206,2.933,0.366,0.305,0.183,-4.11,1.58,-0.01
2020-06-29 10:21:13,-0.079,-0.191,2.944,0.000,0.000,0.000,-4.11,1.58,-0.01
2020-06-29 10:21:13,-0.060,-0.229,2.940,0.000,-0.183,0.244,-4.10,1.58,-0.01
2020-06-29 10:21:13,-0.062,-0.239,2.963,-0.366,-0.488,0.000,-4.11,1.57,-0.01
2020-06-29 10:21:13,-0.085,-0.250,2.961,-0.244,0.000,0.000,-4.12,1.56,-0.01
2020-06-29 10:21:13,-0.090,-0.214,2.954,-0.244,0.000,-0.305,-4.13,1.57,-0.01
2020-06-29 10:21:13,-0.077,-0.193,2.946,0.244,0.427,0.000,-4.13,1.57,-0.01
2020-06-29 10:21:13,-0.065,-0.208,2.954,0.366,0.244,-0.244,-4.12,1.57,-0.01
2020-06-29 10:21:13,-0.089,-0.207,2.932,0.000,0.000,0.000,-4.12,1.57,-0.01
2020-06-29 10:21:13,-0.096,-0.196,2.935,0.183,0.000,0.000,-4.11,1.57,-0.01
2020-06-29 10:21:13,-0.083,-0.184,2.936,0.183,0.000,0.000,-4.11,1.57,-0.01
2020-06-29 10:21:13,-0.063,-0.201,2.947,0.000,-0.183,0.000,-4.10,1.57,-0.01
2020-06-29 10:21:13,-0.076,-0.217,2.934,0.000,-0.183,0.244,-4.10,1.57,-0.01
2020-06-29 10:21:13,-0.062,-0.255,2.961,-0.183,-0.488,0.000,-4.11,1.56,-0.01
2020-06-29 10:21:13,-0.089,-0.236,2.960,-0.488,-0.244,0.000,-4.12,1.55,-0.01
2020-06-29 10:21:13,-0.095,-0.224,2.958,0.000,0.183,0.000,-4.13,1.55,-0.01
2020-06-29 10:21:13,-0.088,-0.199,2.950,0.000,0.427,0.000,-4.13,1.57,-0.01
2020-06-29 10:21:13,-0.062,-0.221,2.955,0.305,0.000,0.000,-4.12,1.57,-0.01
2020-06-29 10:21:13,-0.098,-0.200,2.932,0.000,0.000,0.183,-4.12,1.56,-0.01
2020-06-29 10:21:13,-0.101,-0.206,2.932,0.305,0.244,0.000,-4.11,1.57,-0.01
2020-06-29 10:21:13,-0.089,-0.168,2.943,0.000,0.000,0.000,-4.11,1.57,-0.01
2020-06-29 10:21:13,-0.053,-0.205,2.942,0.244,0.000,0.000,-4.10,1.57,-0.01
2020-06-29 10:21:13,-0.075,-0.216,2.941,-0.305,-0.244,0.183,-4.11,1.57,-0.01
2020-06-29 10:21:13,-0.061,-0.253,2.968,-0.244,-0.244,0.000,-4.11,1.56,-0.01
2020-06-29 10:21:13,-0.086,-0.236,2.960,-0.427,0.000,-0.244,-4.12,1.56,-0.01
2020-06-29 10:21:14,-0.083,-0.210,2.959,0.000,0.305,0.000,-4.13,1.56,-0.01
2020-06-29 10:21:14,-0.085,-0.199,2.954,0.183,0.488,-0.244,-4.13,1.57,-0.01
2020-06-29 10:21:14,-0.066,-0.218,2.949,0.244,0.244,0.000,-4.12,1.57,-0.01
2020-06-29 10:21:14,-0.101,-0.202,2.923,0.000,0.000,0.000,-4.12,1.57,-0.01
2020-06-29 10:21:14,-0.091,-0.190,2.940,0.427,0.000,0.244,-4.11,1.57,-0.01
2020-06-29 10:21:14,-0.094,-0.181,2.939,0.000,0.000,0.000,-4.11,1.57,-0.01
2020-06-29 10:21:14,-0.065,-0.195,2.927,0.000,0.000,0.427,-4.10,1.58,-0.01
2020-06-29 10:21:14,-0.073,-0.237,2.932,0.000,-0.488,0.000,-4.10,1.57,-0.01
2020-06-29 10:21:14,-0.061,-0.239,2.969,-0.366,-0.305,0.183,-4.11,1.57,-0.01
2020-06-29 10:21:14,-0.097,-0.249,2.953,-0.183,0.000,0.000,-4.11,1.56,-0.01
2020-06-29 10:21:14,-0.081,-0.201,2.959,0.000,0.305,0.000,-4.13,1.57,-0.01
2020-06-29 10:21:14,-0.072,-0.215,2.966,0.366,0.305,-0.244,-4.11,1.57,-0.01
2020-06-29 10:21:14,-0.081,-0.204,2.955,0.183,0.305,0.000,-4.11,1.57,-0.01
2020-06-29 10:21:14,-0.095,-0.220,2.924,0.305,0.000,0.000,-4.11,1.57,-0.01
2020-06-29 10:21:14,-0.085,-0.168,2.944,0.000,-0.183,0.183,-4.11,1.57,-0.01
2020-06-29 10:21:14,-0.084,-0.188,2.941,0.305,0.000,0.000,-4.10,1.57,-0.01
2020-06-29 10:21:14,-0.074,-0.174,2.933,0.000,0.000,0.183,-4.10,1.57,-0.01
2020-06-29 10:21:14,-0.069,-0.246,2.930,0.000,-0.366,0.000,-4.09,1.57,-0.01
2020-06-29 10:21:14,-0.066,-0.229,2.965,-0.488,-0.305,-0.183,-4.10,1.56,-0.01
2020-06-29 10:21:14,-0.100,-0.243,2.956,-0.244,0.000,0.000,-4.11,1.56,-0.01
2020-06-29 10:21:14,-0.086,-0.205,2.952,0.000,0.366,0.000,-4.11,1.57,-0.01
2020-06-29 10:21:14,-0.076,-0.234,2.952,0.366,0.305,0.000,-4.11,1.57,-0.01
2020-06-29 10:21:14,-0.080,-0.198,2.954,0.000,0.000,0.244,-4.11,1.57,-0.01
2020-06-29 10:21:14,-0.089,-0.222,2.940,0.305,0.000,0.000,-4.10,1.57,-0.01
2020-06-29 10:21:14,-0.101,-0.177,2.945,0.000,-0.183,0.183,-4.11,1.57,-0.01
2020-06-29 10:21:14,-0.085,-0.183,2.934,0.183,0.000,0.305,-4.10,1.57,-0.01
2020-06-29 10:21:14,-0.061,-0.173,2.943,-0.183,-0.183,0.000,-4.10,1.57,-0.01
2020-06-29 10:21:14,-0.069,-0.235,2.937,-0.244,-0.244,0.000,-4.09,1.57,-0.01
2020-06-29 10:21:14,-0.077,-0.238,2.955,-0.244,0.000,0.000,-4.10,1.57,-0.01
2020-06-29 10:21:14,-0.087,-0.222,2.958,-0.366,0.000,0.000,-4.11,1.56,-0.01
2020-06-29 10:21:14,-0.085,-0.209,2.964,0.183,0.366,-0.244,-4.11,1.57,-0.01
2020-06-29 10:21:14,-0.084,-0.233,2.944,0.244,0.549,0.000,-4.10,1.57,-0.01
2020-06-29 10:21:14,-0.079,-0.213,2.945,0.000,0.000,0.000,-4.11,1.58,-0.01
2020-06-29 10:21:14,-0.084,-0.203,2.941,0.183,0.000,0.244,-4.11,1.58,-0.01
2020-06-29 10:21:14,-0.108,-0.197,2.932,0.000,0.000,0.000,-4.10,1.58,-0.01
2020-06-29 10:21:14,-0.089,-0.171,2.924,0.000,0.000,0.488,-4.10,1.58,-0.01
2020-06-29 10:21:14,-0.063,-0.191,2.934,0.000,-0.305,0.000,-4.09,1.58,-0.01
2020-06-29 10:21:14,-0.065,-0.216,2.939,-0.366,-0.244,0.000,-4.09,1.57,-0.01
2020-06-29 10:21:14,-0.083,-0.242,2.950,-0.183,-0.183,0.000,-4.10,1.57,-0.01
2020-06-29 10:21:14,-0.090,-0.208,2.944,-0.244,0.183,0.000,-4.10,1.57,-0.01
2020-06-29 10:21:14,-0.070,-0.214,2.968,0.244,0.305,0.000,-4.10,1.58,-0.01
2020-06-29 10:21:15,-0.083,-0.217,2.952,0.305,0.427,0.000,-4.10,1.58,-0.01
2020-06-29 10:21:15,-0.074,-0.233,2.945,0.244,0.000,0.000,-4.10,1.58,-0.01
2020-06-29 10:21:15,-0.095,-0.190,2.938,0.000,-0.183,0.305,-4.10,1.58,-0.01
2020-06-29 10:21:15,-0.090,-0.193,2.943,0.244,0.000,0.000,-4.10,1.58,-0.01
2020-06-29 10:21:15,-0.085,-0.170,2.928,0.000,-0.183,0.000,-4.09,1.58,-0.01
2020-06-29 10:21:15,-0.074,-0.202,2.930,0.000,-0.183,0.000,-4.09,1.58,-0.01
2020-06-29 10:21:15,-0.061,-0.225,2.947,-0.183,-0.244,-0.244,-4.09,1.57,-0.01
2020-06-29 10:21:15,-0.087,-0.235,2.947,-0.305,-0.244,0.000,-4.09,1.57,-0.01
2020-06-29 10:21:15,-0.106,-0.220,2.945,0.000,0.305,0.000,-4.10,1.57,-0.01
2020-06-29 10:21:15,-0.075,-0.213,2.963,0.244,0.366,0.000,-4.09,1.58,-0.01
2020-06-29 10:21:15,-0.068,-0.216,2.959,0.244,0.244,0.183,-4.09,1.58,-0.01
2020-06-29 10:21:15,-0.081,-0.228,2.943,0.244,0.000,0.183,-4.09,1.58,-0.01
2020-06-29 10:21:15,-0.108,-0.205,2.945,0.000,-0.183,0.000,-4.09,1.58,-0.01
2020-06-29 10:21:15,-0.080,-0.167,2.951,0.000,0.000,0.427,-4.09,1.58,-0.01
2020-06-29 10:21:15,-0.073,-0.179,2.932,0.000,0.000,0.000,-4.08,1.58,-0.01
2020-06-29 10:21:15,-0.072,-0.178,2.929,-0.244,0.000,0.183,-4.08,1.58,-0.01
2020-06-29 10:21:15,-0.064,-0.221,2.946,0.000,0.000,0.000,-4.08,1.58,-0.01
2020-06-29 10:21:15,-0.079,-0.218,2.943,-0.366,0.000,-0.183,-4.08,1.57,-0.01
2020-06-29 10:21:15,-0.104,-0.221,2.947,0.000,0.305,-0.244,-4.08,1.58,-0.01
2020-06-29 10:21:15,-0.076,-0.204,2.962,0.183,0.549,0.000,-4.08,1.59,-0.01
2020-06-29 10:21:15,-0.063,-0.244,2.951,0.000,0.000,0.000,-4.08,1.58,-0.01
2020-06-29 10:21:15,-0.080,-0.212,2.944,0.000,0.000,0.183,-4.09,1.58,-0.01
2020-06-29 10:21:15,-0.096,-0.220,2.955,0.183,0.000,0.000,-4.09,1.58,-0.01
2020-06-29 10:21:15,-0.091,-0.170,2.941,-0.305,0.000,0.366,-4.09,1.58,-0.01
2020-06-29 10:21:15,-0.073,-0.183,2.927,0.000,0.000,0.000,-4.08,1.59,-0.01
2020-06-29 10:21:15,-0.069,-0.188,2.923,-0.183,-0.183,0.000,-4.08,1.58,-0.01
2020-06-29 10:21:15,-0.070,-0.225,2.955,0.000,0.000,0.000,-4.08,1.58,-0.01
2020-06-29 10:21:15,-0.086,-0.222,2.940,-0.244,0.000,0.000,-4.08,1.58,-0.01
2020-06-29 10:21:15,-0.092,-0.221,2.949,0.000,0.244,-0.183,-4.08,1.58,-0.01
2020-06-29 10:21:15,-0.067,-0.213,2.971,0.305,0.305,0.244,-4.08,1.59,-0.01
2020-06-29 10:21:15,-0.078,-0.239,2.951,0.000,0.000,0.000,-4.08,1.58,-0.01
2020-06-29 10:21:15,-0.082,-0.232,2.947,0.000,-0.244,0.183,-4.09,1.58,-0.01
2020-06-29 10:21:15,-0.093,-0.212,2.955,0.000,-0.305,0.183,-4.09,1.58,-0.01
2020-06-29 10:21:15,-0.094,-0.186,2.945,0.000,0.000,0.000,-4.09,1.58,-0.01
2020-06-29 10:21:15,-0.088,-0.171,2.928,0.000,0.000,0.000,-4.09,1.58,-0.01
2020-06-29 10:21:15,-0.072,-0.208,2.926,0.000,0.000,-0.244,-4.08,1.58,-0.01
2020-06-29 10:21:15,-0.074,-0.206,2.944,-0.183,0.000,0.000,-4.08,1.58,-0.01
2020-06-29 10:21:15,-0.105,-0.222,2.944,0.000,0.000,-0.183,-4.08,1.58,-0.01
2020-06-29 10:21:15,-0.090,-0.201,2.947,0.000,0.366,0.000,-4.08,1.59,-0.01
2020-06-29 10:21:15,-0.065,-0.224,2.964,0.366,0.183,0.000,-4.08,1.59,-0.01
2020-06-29 10:21:15,-0.075,-0.217,2.954,0.000,0.000,0.244,-4.08,1.59,-0.01
2020-06-29 10:21:15,-0.078,-0.237,2.960,0.000,-0.305,0.000,-4.08,1.58,-0.01
2020-06-29 10:21:15,-0.090,-0.201,2.947,-0.244,-0.244,0.366,-4.09,1.58,-0.01
2020-06-29 10:21:15,-0.083,-0.183,2.947,0.000,0.000,0.000,-4.09,1.58,-0.01
2020-06-29 10:21:15,-0.080,-0.151,2.924,0.000,0.000,0.000,-4.08,1.58,-0.01
2020-06-29 10:21:15,-0.066,-0.212,2.930,0.183,0.000,0.000,-4.06,1.58,-0.01
2020-06-29 10:21:15,-0.074,-0.207,2.942,-0.183,0.000,0.000,-4.07,1.58,-0.01
2020-06-29 10:21:15,-0.100,-0.220,2.941,0.000,0.000,-0.244,-4.07,1.58,-0.01
2020-06-29 10:21:15,-0.082,-0.208,2.953,0.000,0.305,0.183,-4.07,1.58,-0.01
2020-06-29 10:21:15,-0.071,-0.246,2.955,0.244,0.244,0.000,-4.07,1.59,-0.01
2020-06-29 10:21:15,-0.070,-0.230,2.953,-0.183,0.000,0.244,-4.08,1.58,-0.01
2020-06-29 10:21:15,-0.078,-0.250,2.962,0.000,-0.305,0.000,-4.08,1.58,-0.01
2020-06-29 10:21:15,-0.100,-0.223,2.940,-0.244,0.000,0.000,-4.09,1.58,-0.01
2020-06-29 10:21:15,-0.089,-0.191,2.951,0.000,0.000,0.000,-4.09,1.58,-0.01
2020-06-29 10:21:15,-0.073,-0.180,2.933,0.000,0.000,0.000,-4.09,1.58,-0.01
2020-06-29 10:21:15,-0.068,-0.216,2.945,0.000,0.000,0.000,-4.08,1.58,-0.01
2020-06-29 10:21:15,-0.086,-0.221,2.942,0.000,0.000,0.000,-4.09,1.58,-0.01
2020-06-29 10:21:15,-0.095,-0.209,2.944,0.000,0.000,0.000,-4.09,1.58,-0.01
2020-06-29 10:21:15,-0.078,-0.208,2.963,0.305,0.000,0.183,-4.08,1.58,-0.01
2020-06-29 10:21:15,-0.079,-0.225,2.956,0.183,0.244,0.244,-4.08,1.58,-0.01
2020-06-29 10:21:15,-0.071,-0.243,2.954,0.000,-0.244,0.183,-4.08,1.58,-0.01
2020-06-29 10:21:15,-0.083,-0.229,2.955,0.000,-0.366,0.366,-4.09,1.58,-0.01
2020-06-29 10:21:15,-0.089,-0.216,2.953,0.000,-0.244,0.000,-4.09,1.57,-0.01
2020-06-29 10:21:15,-0.094,-0.172,2.940,0.000,0.000,0.000,-4.09,1.58,-0.01
2020-06-29 10:21:15,-0.075,-0.192,2.932,0.183,0.000,0.000,-4.08,1.58,-0.01
2020-06-29 10:21:15,-0.073,-0.198,2.934,0.000,0.000,0.000,-4.08,1.58,-0.01
2020-06-29 10:21:15,-0.087,-0.223,2.935,0.000,0.000,-0.366,-4.08,1.58,-0.01
2020-06-29 10:21:15,-0.103,-0.182,2.931,0.000,0.244,0.000,-4.08,1.58,-0.01
2020-06-29 10:21:15,-0.069,-0.218,2.956,0.549,0.183,0.000,-4.07,1.58,-0.01
2020-06-29 10:21:15,-0.067,-0.201,2.958,0.000,0.000,0.000,-4.07,1.58,-0.01
2020-06-29 10:21:15,-0.066,-0.254,2.952,0.000,-0.183,0.000,-4.07,1.58,-0.01
2020-06-29 10:21:15,-0.087,-0.221,2.956,-0.305,-0.366,0.305,-4.08,1.57,-0.01
2020-06-29 10:21:15,-0.077,-0.216,2.967,0.000,-0.305,0.000,-4.08,1.57,-0.01
2020-06-29 10:21:15,-0.090,-0.174,2.934,0.000,0.000,0.000,-4.08,1.57,-0.01
2020-06-29 10:21:15,-0.073,-0.197,2.946,0.000,0.000,-0.183,-4.08,1.57,-0.01
2020-06-29 10:21:15,-0.075,-0.203,2.936,0.000,0.000,0.000,-4.08,1.57,-0.01
2020-06-29 10:21:15,-0.082,-0.227,2.934,0.000,0.000,-0.305,-4.08,1.57,-0.01
2020-06-29 10:21:15,-0.112,-0.205,2.929,0.000,0.000,0.244,-4.08,1.57,-0.01
2020-06-29 10:21:15,-0.073,-0.218,2.964,0.366,0.366,0.000,-4.07,1.58,-0.01
2020-06-29 10:21:15,-0.071,-0.233,2.941,-0.183,0.000,0.183,-4.08,1.58,-0.01
2020-06-29 10:21:15,-0.068,-0.253,2.958,0.000,-0.305,0.244,-4.08,1.57,-0.01
2020-06-29 10:21:15,-0.090,-0.244,2.963,-0.305,-0.305,0.000,-4.09,1.57,-0.01
2020-06-29 10:21:15,-0.082,-0.212,2.975,-0.305,0.000,-0.244,-4.10,1.57,-0.01
2020-06-29 10:21:15,-0.089,-0.199,2.942,0.000,0.000,0.000,-4.10,1.57,-0.01
2020-06-29 10:21:15,-0.072,-0.188,2.957,0.000,0.244,0.000,-4.10,1.57,-0.01
2020-06-29 10:21:15,-0.080,-0.218,2.949,0.000,0.000,-0.183,-4.09,1.57,-0.01
2020-06-29 10:21:15,-0.090,-0.198,2.932,0.000,0.183,0.000,-4.09,1.57,-0.01
2020-06-29 10:21:15,-0.099,-0.215,2.938,0.427,0.000,0.000,-4.09,1.57,-0.01
2020-06-29 10:21:15,-0.069,-0.188,2.969,0.000,0.183,0.244,-4.09,1.58,-0.01
2020-06-29 10:21:15,-0.074,-0.249,2.942,0.000,0.000,0.000,-4.08,1.58,-0.01
2020-06-29 10:21:15,-0.059,-0.238,2.960,-0.305,-0.427,0.244,-4.09,1.57,-0.01
2020-06-29 10:21:15,-0.086,-0.256,2.958,-0.244,-0.488,0.000,-4.10,1.56,-0.01
2020-06-29 10:21:15,-0.084,-0.193,2.968,-0.305,0.000,0.000,-4.11,1.56,-0.01
2020-06-29 10:21:15,-0.091,-0.206,2.928,0.000,0.000,0.000,-4.11,1.56,-0.01
2020-06-29 10:21:15,-0.069,-0.184,2.939,0.183,0.244,0.000,-4.11,1.57,-0.01
2020-06-29 10:21:15,-0.081,-0.216,2.936,0.183,0.000,-0.366,-4.10,1.57,-0.01
2020-06-29 10:21:15,-0.092,-0.185,2.933,0.000,0.000,0.000,-4.10,1.57,-0.01
2020-06-29 10:21:15,-0.096,-0.212,2.936,0.427,0.000,0.000,-4.09,1.57,-0.01
2020-06-29 10:21:15,-0.065,-0.188,2.953,0.000,0.000,0.183,-4.09,1.57,-0.01
2020-06-29 10:21:15,-0.067,-0.243,2.944,0.000,-0.183,0.000,-4.09,1.57,-0.01
2020-06-29 10:21:15,-0.060,-0.236,2.966,-0.244,-0.366,0.183,-4.10,1.56,-0.01
2020-06-29 10:21:15,-0.088,-0.266,2.957,-0.183,-0.305,0.000,-4.10,1.55,-0.01
2020-06-29 10:21:15,-0.085,-0.200,2.965,-0.305,0.000,0.000,-4.11,1.55,-0.01
2020-06-29 10:21:15,-0.088,-0.203,2.951,0.183,0.244,0.000,-4.11,1.55,-0.01
2020-06-29 10:21:15,-0.075,-0.203,2.943,0.244,0.244,0.000,-4.11,1.56,-0.01
2020-06-29 10:21:15,-0.083,-0.219,2.929,0.244,0.000,0.000,-4.10,1.56,-0.01
2020-06-29 10:21:15,-0.100,-0.185,2.944,0.000,0.000,0.244,-4.10,1.56,-0.01
2020-06-29 10:21:15,-0.099,-0.212,2.941,0.305,0.305,0.000,-4.10,1.57,-0.01
2020-06-29 10:21:15,-0.074,-0.203,2.940,0.000,0.000,0.000,-4.10,1.57,-0.01
2020-06-29 10:21:15,-0.065,-0.236,2.944,0.000,-0.244,0.183,-4.10,1.57,-0.01
2020-06-29 10:21:15,-0.061,-0.246,2.971,-0.366,-0.488,0.000,-4.10,1.56,-0.01
2020-06-29 10:21:15,-0.092,-0.261,2.963,-0.305,0.000,0.000,-4.11,1.55,-0.01
2020-06-29 10:21:15,-0.087,-0.211,2.958,-0.305,0.000,0.000,-4.13,1.55,-0.01
2020-06-29 10:21:15,-0.082,-0.196,2.953,0.183,0.305,0.000,-4.13,1.56,-0.01
2020-06-29 10:21:15,-0.070,-0.204,2.953,0.244,0.305,-0.244,-4.12,1.57,-0.01
2020-06-29 10:21:15,-0.091,-0.212,2.929,0.000,0.000,0.000,-4.11,1.56,-0.01
2020-06-29 10:21:15,-0.095,-0.189,2.938,0.000,0.000,0.000,-4.11,1.57,-0.01
2020-06-29 10:21:15,-0.083,-0.192,2.940,0.244,0.000,0.000,-4.11,1.57,-0.01
2020-06-29 10:21:15,-0.072,-0.208,2.946,0.000,0.000,0.000,-4.10,1.57,-0.01
2020-06-29 10:21:15,-0.066,-0.231,2.940,0.000,-0.244,0.366,-4.10,1.57,-0.01
2020-06-29 10:21:15,-0.065,-0.254,2.962,-0.366,-0.488,0.000,-4.11,1.55,-0.01
2020-06-29 10:21:15,-0.086,-0.240,2.965,-0.366,0.000,0.000,-4.13,1.55,-0.01
2020-06-29 10:21:15,-0.094,-0.226,2.950,0.000,0.000,0.000,-4.13,1.55,-0.01
2020-06-29 10:21:15,-0.083,-0.196,2.947,0.183,0.427,0.000,-4.13,1.56,-0.01
2020-06-29 10:21:15,-0.058,-0.218,2.956,0.366,0.000,-0.305,-4.12,1.56,-0.01
2020-06-29 10:21:15,-0.092,-0.209,2.933,0.000,0.000,0.000,-4.13,1.55,-0.01
2020-06-29 10:21:15,-0.102,-0.200,2.931,0.244,0.000,0.000,-4.12,1.56,-0.01
2020-06-29 10:21:15,-0.080,-0.187,2.943,0.000,0.000,0.183,-4.12,1.57,-0.01
2020-06-29 10:21:15,-0.054,-0.203,2.951,0.000,-0.244,0.000,-4.11,1.56,-0.01
2020-06-29 10:21:15,-0.073,-0.230,2.938,0.000,-0.183,0.183,-4.11,1.55,-0.01
2020-06-29 10:21:15,-0.067,-0.259,2.964,-0.244,-0.366,0.000,-4.12,1.55,-0.01
2020-06-29 10:21:15,-0.084,-0.235,2.962,-0.366,0.000,0.000,-4.13,1.54,-0.01
2020-06-29 10:21:15,-0.090,-0.220,2.962,0.000,0.183,0.000,-4.14,1.55,-0.01
2020-06-29 10:21:15,-0.086,-0.208,2.950,0.183,0.549,-0.183,-4.13,1.55,-0.01
2020-06-29 10:21:15,-0.062,-0.218,2.953,0.183,0.000,0.000,-4.13,1.55,-0.01
2020-06-29 10:21:15,-0.098,-0.210,2.933,0.000,0.000,0.000,-4.13,1.55,-0.01
2020-06-29 10:21:15,-0.103,-0.208,2.932,0.183,0.183,0.000,-4.13,1.56,-0.01
2020-06-29 10:21:15,-0.087,-0.181,2.948,0.000,0.000,0.366,-4.13,1.57,-0.01
2020-06-29 10:21:15,-0.059,-0.208,2.939,0.000,0.000,0.244,-4.12,1.57,-0.01
2020-06-29 10:21:15,-0.074,-0.232,2.942,-0.183,-0.305,0.000,-4.13,1.56,-0.01
2020-06-29 10:21:15,-0.070,-0.246,2.974,-0.305,-0.305,0.000,-4.13,1.55,-0.01
2020-06-29 10:21:15,-0.096,-0.243,2.957,-0.305,0.000,0.000,-4.14,1.55,-0.01
2020-06-29 10:21:15,-0.078,-0.205,2.964,0.000,0.244,0.000,-4.15,1.55,-0.01
2020-06-29 10:21:15,-0.076,-0.208,2.959,0.366,0.366,-0.305,-4.14,1.56,-0.01
2020-06-29 10:21:15,-0.078,-0.215,2.956,0.000,0.305,0.000,-4.14,1.56,-0.01
2020-06-29 10:21:15,-0.100,-0.203,2.928,0.183,0.000,0.000,-4.14,1.56,-0.01
2020-06-29 10:21:15,-0.083,-0.184,2.945,0.244,0.000,0.000,-4.13,1.57,-0.01
2020-06-29 10:21:15,-0.086,-0.180,2.945,0.000,0.000,0.000,-4.13,1.57,-0.01
2020-06-29 10:21:15,-0.069,-0.199,2.930,0.000,0.000,0.305,-4.12,1.57,-0.01
2020-06-29 10:21:15,-0.066,-0.243,2.934,-0.244,-0.488,0.000,-4.12,1.56,-0.01
2020-06-29 10:21:15,-0.067,-0.247,2.967,-0.427,-0.305,0.000,-4.13,1.55,-0.01
2020-06-29 10:21:15,-0.099,-0.237,2.954,-0.244,0.000,0.000,-4.14,1.55,-0.01
2020-06-29 10:21:15,-0.081,-0.214,2.952,0.000,0.366,0.000,-4.14,1.56,-0.01
2020-06-29 10:21:15,-0.070,-0.225,2.959,0.366,0.183,0.000,-4.14,1.56,-0.01
2020-06-29 10:21:15,-0.080,-0.218,2.950,0.244,0.183,0.000,-4.14,1.56,-0.01
2020-06-29 10:21:15,-0.097,-0.211,2.937,0.183,0.000,0.183,-4.14,1.56,-0.01
2020-06-29 10:21:15,-0.088,-0.184,2.942,0.183,0.000,0.244,-4.14,1.57,-0.01
2020-06-29 10:21:15,-0.082,-0.184,2.938,0.000,0.000,0.000,-4.13,1.57,-0.01
2020-06-29 10:21:15,-0.063,-0.179,2.947,0.000,0.000,0.000,-4.13,1.57,-0.01
2020-06-29 10:21:15,-0.066,-0.245,2.938,-0.183,-0.305,0.000,-4.12,1.56,-0.01
2020-06-29 10:21:15,-0.075,-0.237,2.959,-0.305,0.000,-0.244,-4.13,1.55,-0.01
2020-06-29 10:21:15,-0.092,-0.221,2.959,-0.244,0.000,0.000,-4.14,1.55,-0.01
2020-06-29 10:21:16,-0.084,-0.208,2.960,0.244,0.488,0.000,-4.14,1.56,-0.01
2020-06-29 10:21:16,-0.081,-0.227,2.944,0.244,0.366,0.000,-4.13,1.57,-0.01
2020-06-29 10:21:16,-0.082,-0.210,2.942,0.244,0.000,0.183,-4.13,1.57,-0.01
2020-06-29 10:21:16,-0.086,-0.200,2.944,0.183,0.000,0.183,-4.13,1.57,-0.01
2020-06-29 10:21:16,-0.104,-0.189,2.931,0.000,0.000,0.000,-4.13,1.57,-0.01
2020-06-29 10:21:16,-0.086,-0.179,2.926,0.000,0.000,0.305,-4.13,1.57,-0.01
2020-06-29 10:21:16,-0.062,-0.188,2.937,0.000,-0.305,0.000,-4.11,1.57,-0.01
2020-06-29 10:21:16,-0.064,-0.230,2.948,-0.366,-0.244,0.000,-4.11,1.57,-0.01
2020-06-29 10:21:16,-0.087,-0.237,2.953,-0.305,0.000,0.000,-4.12,1.56,-0.01
2020-06-29 10:21:16,-0.086,-0.211,2.952,-0.183,0.183,0.000,-4.13,1.57,-0.01
2020-06-29 10:21:16,-0.075,-0.212,2.968,0.244,0.305,-0.183,-4.13,1.57,-0.01
2020-06-29 10:21:16,-0.080,-0.222,2.953,0.183,0.427,0.183,-4.13,1.57,-0.01
2020-06-29 10:21:16,-0.082,-0.225,2.944,0.183,0.000,0.000,-4.13,1.57,-0.01
2020-06-29 10:21:16,-0.087,-0.202,2.944,0.000,-0.183,0.000,-4.13,1.57,-0.01
2020-06-29 10:21:16,-0.096,-0.180,2.944,0.000,0.000,0.183,-4.13,1.57,-0.01
2020-06-29 10:21:16,-0.081,-0.184,2.928,0.000,0.000,0.000,-4.12,1.57,-0.01
2020-06-29 10:21:16,-0.072,-0.198,2.928,-0.183,-0.366,0.000,-4.11,1.57,-0.01
2020-06-29 10:21:16,-0.058,-0.232,2.952,0.000,-0.244,0.000,-4.11,1.57,-0.01
2020-06-29 10:21:16,-0.087,-0.240,2.950,-0.366,-0.183,0.000,-4.12,1.56,-0.01
2020-06-29 10:21:16,-0.095,-0.219,2.947,0.000,0.305,0.000,-4.13,1.57,-0.01
2020-06-29 10:21:16,-0.074,-0.215,2.967,0.244,0.366,0.000,-4.13,1.57,-0.01
2020-06-29 10:21:16,-0.067,-0.223,2.959,0.183,0.244,0.000,-4.12,1.57,-0.01
2020-06-29 10:21:16,-0.080,-0.225,2.945,0.000,-0.183,0.183,-4.13,1.57,-0.01
2020-06-29 10:21:16,-0.100,-0.206,2.944,0.000,0.000,0.000,-4.13,1.57,-0.01
2020-06-29 10:21:16,-0.086,-0.177,2.949,0.000,-0.183,0.305,-4.13,1.57,-0.01
2020-06-29 10:21:16,-0.069,-0.172,2.933,0.000,0.000,0.000,-4.12,1.57,-0.01
2020-06-29 10:21:16,-0.074,-0.201,2.926,0.000,-0.183,0.000,-4.11,1.57,-0.01
2020-06-29 10:21:16,-0.067,-0.218,2.949,0.000,0.000,0.000,-4.11,1.57,-0.01
2020-06-29 10:21:16,-0.082,-0.230,2.943,-0.183,0.000,0.000,-4.11,1.56,-0.01
2020-06-29 10:21:16,-0.105,-0.222,2.946,0.000,0.366,0.000,-4.11,1.57,-0.01
2020-06-29 10:21:16,-0.079,-0.210,2.966,0.244,0.549,0.000,-4.11,1.58,-0.01
2020-06-29 10:21:16,-0.068,-0.229,2.955,0.305,0.000,0.000,-4.11,1.58,-0.01
2020-06-29 10:21:16,-0.086,-0.220,2.943,0.000,0.000,0.183,-4.11,1.57,-0.01
2020-06-29 10:21:16,-0.105,-0.203,2.948,0.183,0.000,0.000,-4.11,1.57,-0.01
2020-06-29 10:21:16,-0.094,-0.176,2.939,-0.244,0.000,0.183,-4.11,1.58,-0.01
2020-06-29 10:21:16,-0.074,-0.169,2.923,0.000,0.000,0.000,-4.11,1.58,-0.01
2020-06-29 10:21:16,-0.071,-0.205,2.924,0.000,0.000,-0.183,-4.10,1.58,-0.01
2020-06-29 10:21:16,-0.073,-0.217,2.956,-0.183,0.000,0.000,-4.10,1.58,-0.01
2020-06-29 10:21:16,-0.087,-0.225,2.945,-0.244,0.000,0.000,-4.10,1.58,-0.01
2020-06-29 10:21:16,-0.094,-0.216,2.957,0.000,0.244,-0.183,-4.11,1.58,-0.01
2020-06-29 10:21:16,-0.066,-0.214,2.968,0.244,0.366,0.183,-4.10,1.59,-0.01
2020-06-29 10:21:16,-0.078,-0.235,2.956,0.000,0.000,0.000,-4.10,1.58,-0.01
2020-06-29 10:21:16,-0.083,-0.228,2.943,0.000,0.000,0.000,-4.11,1.58,-0.01
2020-06-29 10:21:16,-0.093,-0.201,2.953,0.000,-0.366,0.305,-4.11,1.58,-0.01
2020-06-29 10:21:16,-0.091,-0.183,2.940,0.000,0.000,0.000,-4.11,1.58,-0.01
2020-06-29 10:21:16,-0.087,-0.172,2.931,0.000,0.000,0.000,-4.10,1.58,-0.01
2020-06-29 10:21:16,-0.070,-0.205,2.923,0.000,0.000,0.000,-4.10,1.58,-0.01
2020-06-29 10:21:16,-0.075,-0.221,2.946,-0.244,-0.183,0.000,-4.10,1.58,-0.01
2020-06-29 10:21:16,-0.105,-0.219,2.942,0.000,0.183,-0.183,-4.10,1.58,-0.01
2020-06-29 10:21:16,-0.081,-0.213,2.953,0.000,0.366,0.000,-4.10,1.59,-0.01
2020-06-29 10:21:16,-0.063,-0.226,2.957,0.305,0.244,0.000,-4.10,1.59,-0.01
2020-06-29 10:21:16,-0.072,-0.232,2.957,0.000,0.000,0.183,-4.10,1.59,-0.01
2020-06-29 10:21:16,-0.084,-0.225,2.959,0.000,-0.244,0.000,-4.10,1.58,-0.01
2020-06-29 10:21:16,-0.088,-0.219,2.952,0.000,-0.244,0.305,-4.11,1.58,-0.01
2020-06-29 10:21:16,-0.089,-0.165,2.945,0.000,0.000,0.000,-4.11,1.58,-0.01
2020-06-29 10:21:16,-0.074,-0.176,2.933,0.000,0.000,0.000,-4.10,1.58,-0.01
2020-06-29 10:21:16,-0.069,-0.205,2.935,0.000,0.000,0.000,-4.09,1.58,-0.01
2020-06-29 10:21:16,-0.074,-0.224,2.944,0.000,0.000,0.000,-4.09,1.58,-0.01
2020-06-29 10:21:16,-0.106,-0.211,2.943,0.000,0.183,-0.183,-4.09,1.58,-0.01
2020-06-29 10:21:16,-0.076,-0.218,2.956,0.244,0.488,0.000,-4.09,1.59,-0.01
2020-06-29 10:21:16,-0.082,-0.233,2.952,0.000,0.000,0.000,-4.09,1.59,-0.01
2020-06-29 10:21:16,-0.071,-0.239,2.949,0.000,0.000,0.000,-4.10,1.59,-0.01
2020-06-29 10:21:16,-0.083,-0.228,2.956,0.000,-0.488,0.000,-4.10,1.58,-0.01
2020-06-29 10:21:16,-0.103,-0.223,2.942,0.000,0.000,0.183,-4.11,1.58,-0.01
2020-06-29 10:21:16,-0.093,-0.181,2.946,0.000,0.000,0.000,-4.11,1.59,-0.01
2020-06-29 10:21:16,-0.069,-0.180,2.933,0.000,0.000,0.000,-4.10,1.59,-0.01
2020-06-29 10:21:16,-0.076,-0.206,2.945,0.000,0.000,0.000,-4.10,1.59,-0.01
2020-06-29 10:21:16,-0.085,-0.219,2.939,0.000,0.000,0.000,-4.10,1.58,-0.01
2020-06-29 10:21:16,-0.097,-0.203,2.942,0.000,0.000,0.000,-4.10,1.58,-0.01
2020-06-29 10:21:16,-0.070,-0.205,2.965,0.305,0.305,0.000,-4.09,1.59,-0.01
2020-06-29 10:21:16,-0.079,-0.231,2.958,0.000,0.183,0.000,-4.09,1.59,-0.01
2020-06-29 10:21:16,-0.067,-0.241,2.957,0.000,0.000,0.000,-4.10,1.59,-0.01
2020-06-29 10:21:16,-0.086,-0.237,2.956,-0.183,-0.366,0.000,-4.10,1.58,-0.01
2020-06-29 10:21:16,-0.089,-0.204,2.960,0.000,-0.183,0.000,-4.11,1.58,-0.01
2020-06-29 10:21:16,-0.093,-0.186,2.940,0.000,0.000,0.000,-4.10,1.58,-0.01
2020-06-29 10:21:16,-0.075,-0.183,2.934,0.000,0.000,0.000,-4.10,1.59,-0.01
2020-06-29 10:21:16,-0.072,-0.212,2.939,0.000,0.000,0.000,-4.10,1.58,-0.01
2020-06-29 10:21:16,-0.089,-0.211,2.939,0.000,0.000,-0.244,-4.10,1.58,-0.01
2020-06-29 10:21:16,-0.101,-0.210,2.932,0.000,0.305,0.000,-4.10,1.59,-0.01
2020-06-29 10:21:16,-0.073,-0.200,2.958,0.244,0.183,0.000,-4.09,1.59,-0.01
2020-06-29 10:21:16,-0.060,-0.227,2.954,0.000,0.000,0.000,-4.09,1.59,-0.01
2020-06-29 10:21:16,-0.068,-0.235,2.954,0.000,-0.366,0.244,-4.09,1.58,-0.01
2020-06-29 10:21:16,-0.090,-0.243,2.954,0.000,-0.183,0.244,-4.10,1.58,-0.01
2020-06-29 10:21:16,-0.075,-0.196,2.967,-0.305,-0.366,0.000,-4.11,1.58,-0.01
2020-06-29 10:21:16,-0.085,-0.193,2.933,0.000,0.183,0.000,-4.10,1.58,-0.01
2020-06-29 10:21:16,-0.075,-0.185,2.946,0.000,0.000,0.000,-4.10,1.58,-0.01
2020-06-29 10:21:16,-0.074,-0.214,2.934,0.000,0.000,0.000,-4.10,1.58,-0.01
2020-06-29 10:21:16,-0.086,-0.213,2.937,0.000,0.000,-0.305,-4.10,1.58,-0.01
2020-06-29 10:21:16,-0.106,-0.213,2.930,0.244,0.244,0.183,-4.09,1.58,-0.01
2020-06-29 10:21:16,-0.072,-0.207,2.962,0.244,0.305,0.000,-4.09,1.59,-0.01
2020-06-29 10:21:16,-0.073,-0.238,2.938,0.000,0.000,0.000,-4.09,1.58,-0.01
2020-06-29 10:21:16,-0.071,-0.245,2.957,0.000,-0.366,0.244,-4.10,1.58,-0.01
2020-06-29 10:21:16,-0.091,-0.234,2.958,0.000,-0.305,0.183,-4.10,1.57,-0.01
2020-06-29 10:21:16,-0.083,-0.208,2.971,-0.305,0.000,0.000,-4.11,1.58,-0.01
2020-06-29 10:21:16,-0.090,-0.180,2.934,0.000,0.000,0.000,-4.11,1.58,-0.01
2020-06-29 10:21:16,-0.068,-0.196,2.952,0.244,0.183,0.000,-4.10,1.58,-0.01
2020-06-29 10:21:16,-0.082,-0.205,2.944,0.000,0.000,0.000,-4.10,1.58,-0.01
2020-06-29 10:21:16,-0.091,-0.205,2.936,0.000,0.183,0.000,-4.10,1.58,-0.01
2020-06-29 10:21:17,-0.101,-0.204,2.942,0.244,0.000,0.000,-4.09,1.58,-0.01
2020-06-29 10:21:17,-0.063,-0.205,2.971,0.000,0.244,0.000,-4.09,1.59,-0.01
2020-06-29 10:21:17,-0.079,-0.235,2.944,0.000,0.000,0.000,-4.09,1.58,-0.01
2020-06-29 10:21:17,-0.057,-0.248,2.959,0.000,-0.366,0.183,-4.10,1.58,-0.01
2020-06-29 10:21:17,-0.087,-0.246,2.956,-0.305,-0.488,0.244,-4.10,1.57,-0.01
2020-06-29 10:21:17,-0.083,-0.199,2.970,-0.183,0.000,-0.183,-4.11,1.57,-0.01
2020-06-29 10:21:17,-0.088,-0.203,2.932,0.000,0.183,-0.183,-4.11,1.57,-0.01
2020-06-29 10:21:17,-0.069,-0.201,2.938,0.183,0.183,0.000,-4.11,1.58,-0.01
2020-06-29 10:21:17,-0.083,-0.217,2.938,0.000,0.000,-0.244,-4.10,1.57,-0.01
2020-06-29 10:21:17,-0.091,-0.200,2.937,0.000,0.183,0.000,-4.11,1.58,-0.01
2020-06-29 10:21:17,-0.096,-0.217,2.939,0.305,0.183,0.000,-4.10,1.58,-0.01
2020-06-29 10:21:17,-0.061,-0.208,2.948,0.000,0.000,0.183,-4.10,1.58,-0.01
2020-06-29 10:21:17,-0.068,-0.245,2.951,0.000,-0.366,0.183,-4.10,1.58,-0.01
2020-06-29 10:21:17,-0.062,-0.241,2.964,-0.244,-0.305,0.305,-4.11,1.57,-0.01
2020-06-29 10:21:17,-0.095,-0.266,2.955,-0.305,-0.305,0.000,-4.12,1.56,-0.01
2020-06-29 10:21:17,-0.087,-0.199,2.964,-0.183,0.000,0.000,-4.13,1.57,-0.01
2020-06-29 10:21:17,-0.087,-0.207,2.947,0.183,0.183,0.000,-4.13,1.57,-0.01
2020-06-29 10:21:17,-0.077,-0.212,2.939,0.244,0.305,0.000,-4.13,1.57,-0.01
2020-06-29 10:21:17,-0.085,-0.219,2.931,0.000,0.000,0.000,-4.13,1.57,-0.01
2020-06-29 10:21:17,-0.099,-0.192,2.942,0.183,0.000,0.000,-4.12,1.57,-0.01
2020-06-29 10:21:17,-0.097,-0.209,2.949,0.244,0.366,0.000,-4.11,1.58,-0.01
2020-06-29 10:21:17,-0.076,-0.208,2.941,0.183,0.000,0.000,-4.11,1.58,-0.01
2020-06-29 10:21:17,-0.067,-0.244,2.948,0.000,-0.244,0.000,-4.11,1.58,-0.01
2020-06-29 10:21:17,-0.064,-0.235,2.975,-0.305,-0.427,0.000,-4.12,1.57,-0.01
2020-06-29 10:21:17,-0.095,-0.254,2.959,-0.183,0.000,0.000,-4.13,1.57,-0.01
2020-06-29 10:21:17,-0.090,-0.203,2.954,-0.183,0.000,0.000,-4.14,1.57,-0.01
2020-06-29 10:21:17,-0.074,-0.194,2.953,0.183,0.305,0.000,-4.14,1.58,-0.01
2020-06-29 10:21:17,-0.072,-0.211,2.949,0.244,0.244,-0.366,-4.13,1.58,-0.01
2020-06-29 10:21:17,-0.093,-0.208,2.928,0.000,0.183,0.000,-4.13,1.58,-0.01
2020-06-29 10:21:17,-0.094,-0.195,2.939,0.305,0.000,0.183,-4.13,1.58,-0.01
2020-06-29 10:21:17,-0.081,-0.191,2.948,0.000,0.244,0.000,-4.12,1.58,-0.01
2020-06-29 10:21:17,-0.070,-0.217,2.946,0.000,-0.183,0.244,-4.11,1.58,-0.01
2020-06-29 10:21:17,-0.067,-0.234,2.940,-0.183,-0.244,0.366,-4.12,1.58,-0.01
2020-06-29 10:21:17,-0.064,-0.258,2.965,-0.305,-0.549,0.000,-4.13,1.57,-0.01
2020-06-29 10:21:17,-0.088,-0.232,2.967,-0.366,0.000,0.000,-4.14,1.57,-0.01
2020-06-29 10:21:17,-0.093,-0.235,2.946,0.000,0.000,-0.183,-4.14,1.57,-0.01
2020-06-29 10:21:17,-0.080,-0.183,2.948,0.000,0.366,0.000,-4.15,1.57,-0.01
2020-06-29 10:21:17,-0.061,-0.225,2.953,0.488,0.244,-0.366,-4.14,1.58,-0.01
2020-06-29 10:21:17,-0.100,-0.189,2.928,0.000,0.000,0.000,-4.14,1.57,-0.01
2020-06-29 10:21:17,-0.102,-0.210,2.930,0.427,0.000,0.000,-4.13,1.58,-0.01
2020-06-29 10:21:17,-0.080,-0.172,2.940,0.000,0.000,0.000,-4.13,1.58,-0.01
2020-06-29 10:21:17,-0.051,-0.210,2.950,0.000,-0.183,0.000,-4.12,1.58,-0.01
2020-06-29 10:21:17,-0.073,-0.227,2.941,-0.305,-0.244,0.244,-4.13,1.57,-0.01
2020-06-29 10:21:17,-0.068,-0.268,2.966,-0.183,-0.305,0.000,-4.13,1.57,-0.01
2020-06-29 10:21:17,-0.085,-0.223,2.966,-0.549,-0.183,0.000,-4.14,1.56,-0.01
2020-06-29 10:21:17,-0.091,-0.225,2.953,0.000,0.244,0.000,-4.15,1.56,-0.01
2020-06-29 10:21:17,-0.087,-0.203,2.946,0.000,0.427,0.000,-4.15,1.57,-0.01
2020-06-29 10:21:17,-0.066,-0.215,2.947,0.244,0.000,0.000,-4.14,1.57,-0.01
2020-06-29 10:21:17,-0.098,-0.202,2.930,0.000,0.000,0.000,-4.14,1.57,-0.01
2020-06-29 10:21:17,-0.106,-0.210,2.924,0.244,0.183,0.000,-4.14,1.57,-0.01
2020-06-29 10:21:17,-0.086,-0.181,2.946,0.000,0.000,0.366,-4.14,1.58,-0.01
2020-06-29 10:21:17,-0.056,-0.220,2.940,0.000,0.000,0.000,-4.13,1.58,-0.01
2020-06-29 10:21:17,-0.074,-0.235,2.949,-0.305,-0.366,0.000,-4.14,1.57,-0.01
2020-06-29 10:21:17,-0.075,-0.260,2.972,-0.244,-0.305,0.000,-4.14,1.57,-0.01
2020-06-29 10:21:17,-0.090,-0.240,2.959,-0.366,0.000,-0.183,-4.15,1.57,-0.01
2020-06-29 10:21:17,-0.081,-0.202,2.961,0.000,0.183,0.000,-4.16,1.57,-0.01
2020-06-29 10:21:17,-0.078,-0.213,2.957,0.366,0.366,-0.305,-4.15,1.57,-0.01
2020-06-29 10:21:17,-0.075,-0.210,2.950,0.000,0.183,0.000,-4.15,1.57,-0.01
2020-06-29 10:21:17,-0.096,-0.208,2.930,0.244,0.000,0.000,-4.15,1.57,-0.01
2020-06-29 10:21:17,-0.089,-0.184,2.940,0.244,0.000,0.000,-4.15,1.58,-0.01
2020-06-29 10:21:17,-0.082,-0.189,2.948,0.000,0.000,0.000,-4.14,1.58,-0.01
2020-06-29 10:21:17,-0.069,-0.198,2.935,0.000,0.000,0.366,-4.14,1.58,-0.01
2020-06-29 10:21:17,-0.065,-0.250,2.943,0.000,-0.488,0.000,-4.13,1.57,-0.01
2020-06-29 10:21:17,-0.074,-0.233,2.966,-0.488,-0.244,0.000,-4.15,1.57,-0.01
2020-06-29 10:21:17,-0.095,-0.240,2.956,0.000,0.000,0.000,-4.15,1.56,-0.01
2020-06-29 10:21:17,-0.083,-0.194,2.953,0.000,0.305,0.000,-4.15,1.57,-0.01
2020-06-29 10:21:17,-0.063,-0.215,2.959,0.427,0.305,-0.183,-4.15,1.57,-0.01
2020-06-29 10:21:17,-0.083,-0.201,2.941,0.000,0.183,0.000,-4.15,1.57,-0.01
2020-06-29 10:21:17,-0.096,-0.212,2.934,0.244,0.000,0.000,-4.14,1.57,-0.01
2020-06-29 10:21:17,-0.085,-0.164,2.940,0.000,0.000,0.000,-4.14,1.57,-0.01
2020-06-29 10:21:17,-0.071,-0.194,2.941,0.244,0.000,0.000,-4.13,1.57,-0.01
2020-06-29 10:21:17,-0.075,-0.180,2.935,-0.244,0.000,0.366,-4.13,1.57,-0.01
2020-06-29 10:21:17,-0.066,-0.256,2.940,0.000,-0.305,0.000,-4.12,1.57,-0.01
2020-06-29 10:21:17,-0.079,-0.237,2.962,-0.549,-0.244,0.000,-4.14,1.56,-0.01
2020-06-29 10:21:17,-0.097,-0.226,2.958,0.000,0.000,0.183,-4.14,1.56,-0.01
2020-06-29 10:21:17,-0.088,-0.208,2.951,0.183,0.427,0.000,-4.14,1.57,-0.01
2020-06-29 10:21:17,-0.071,-0.229,2.953,0.183,0.305,0.000,-4.14,1.57,-0.01
2020-06-29 10:21:17,-0.090,-0.198,2.941,0.000,0.000,0.244,-4.14,1.57,-0.01
2020-06-29 10:21:17,-0.090,-0.198,2.941,0.244,0.000,0.000,-4.14,1.57,-0.01
2020-06-29 10:21:17,-0.092,-0.208,2.940,0.244,0.000,0.000,-4.13,1.58,-0.01
2020-06-29 10:21:17,-0.100,-0.170,2.937,0.000,-0.183,0.244,-4.13,1.58,-0.01
2020-06-29 10:21:17,-0.076,-0.190,2.926,0.366,0.000,0.183,-4.11,1.58,-0.01
2020-06-29 10:21:17,-0.069,-0.190,2.942,-0.244,-0.305,0.000,-4.11,1.58,-0.01
2020-06-29 10:21:17,-0.061,-0.233,2.952,-0.244,-0.305,0.000,-4.11,1.57,-0.01
2020-06-29 10:21:17,-0.089,-0.251,2.951,-0.244,0.000,-0.244,-4.12,1.57,-0.01
2020-06-29 10:21:17,-0.084,-0.211,2.966,-0.244,0.000,0.000,-4.13,1.57,-0.01
2020-06-29 10:21:17,-0.081,-0.214,2.967,0.305,0.366,0.000,-4.13,1.57,-0.01
2020-06-29 10:21:17,-0.083,-0.224,2.949,0.183,0.427,0.000,-4.13,1.58,-0.01
2020-06-29 10:21:17,-0.088,-0.219,2.936,0.000,0.000,0.000,-4.13,1.58,-0.01
2020-06-29 10:21:17,-0.086,-0.182,2.948,0.183,0.000,0.183,-4.13,1.58,-0.01
2020-06-29 10:21:17,-0.098,-0.196,2.935,0.000,0.000,0.000,-4.12,1.58,-0.01
2020-06-29 10:21:17,-0.086,-0.169,2.925,0.000,0.000,0.366,-4.11,1.58,-0.01
2020-06-29 10:21:17,-0.063,-0.214,2.928,0.000,-0.366,0.000,-4.11,1.58,-0.01
2020-06-29 10:21:17,-0.060,-0.216,2.955,-0.366,-0.366,0.000,-4.11,1.57,-0.01
2020-06-29 10:21:17,-0.087,-0.250,2.951,0.000,0.000,0.000,-4.11,1.57,-0.01
2020-06-29 10:21:17,-0.086,-0.206,2.951,0.000,0.183,0.000,-4.12,1.57,-0.01
2020-06-29 10:21:17,-0.070,-0.224,2.968,0.366,0.305,0.000,-4.11,1.58,-0.01
2020-06-29 10:21:17,-0.074,-0.213,2.955,0.183,0.305,0.000,-4.11,1.58,-0.01
2020-06-29 10:21:17,-0.081,-0.236,2.943,0.244,0.000,0.000,-4.11,1.57,-0.01
2020-06-29 10:21:17,-0.093,-0.187,2.941,0.000,-0.183,0.244,-4.12,1.57,-0.01
2020-06-29 10:21:18,-0.088,-0.188,2.943,0.183,0.000,0.000,-4.11,1.58,-0.01
2020-06-29 10:21:18,-0.073,-0.168,2.937,0.000,-0.183,0.000,-4.11,1.58,-0.01
2020-06-29 10:21:18,-0.077,-0.219,2.923,0.000,-0.183,0.000,-4.10,1.57,-0.01
2020-06-29 10:21:18,-0.063,-0.226,2.958,-0.244,-0.244,0.000,-4.10,1.57,-0.01
2020-06-29 10:21:18,-0.092,-0.235,2.948,-0.244,0.000,0.000,-4.11,1.57,-0.01
2020-06-29 10:21:18,-0.101,-0.221,2.951,0.183,0.366,0.000,-4.11,1.57,-0.01
2020-06-29 10:21:18,-0.079,-0.214,2.958,0.305,0.427,0.000,-4.11,1.58,-0.01
2020-06-29 10:21:18,-0.063,-0.218,2.957,0.244,0.000,0.183,-4.11,1.58,-0.01
2020-06-29 10:21:18,-0.085,-0.218,2.940,0.183,-0.183,0.000,-4.11,1.57,-0.01
2020-06-29 10:21:18,-0.105,-0.201,2.940,0.000,0.000,0.183,-4.11,1.57,-0.01
2020-06-29 10:21:18,-0.089,-0.166,2.942,0.000,-0.183,0.305,-4.10,1.58,-0.01
2020-06-29 10:21:18,-0.060,-0.184,2.937,0.000,0.000,0.000,-4.10,1.58,-0.01
2020-06-29 10:21:18,-0.075,-0.199,2.926,-0.305,-0.244,0.000,-4.09,1.57,-0.01
2020-06-29 10:21:18,-0.066,-0.237,2.956,0.000,0.000,0.000,-4.09,1.57,-0.01
2020-06-29 10:21:18,-0.084,-0.212,2.947,-0.366,0.000,-0.183,-4.10,1.57,-0.01
2020-06-29 10:21:18,-0.087,-0.229,2.956,0.305,0.305,0.000,-4.10,1.57,-0.01
2020-06-29 10:21:18,-0.085,-0.208,2.961,0.000,0.549,0.000,-4.10,1.58,-0.01
2020-06-29 10:21:18,-0.063,-0.238,2.955,0.244,0.000,0.000,-4.10,1.58,-0.01
2020-06-29 10:21:18,-0.090,-0.206,2.938,0.000,-0.183,0.000,-4.10,1.57,-0.01
2020-06-29 10:21:18,-0.097,-0.213,2.947,0.305,0.000,0.000,-4.10,1.58,-0.01
2020-06-29 10:21:18,-0.098,-0.167,2.932,-0.244,0.000,0.244,-4.10,1.58,-0.01
2020-06-29 10:21:18,-0.069,-0.188,2.930,0.000,0.000,0.000,-4.09,1.58,-0.01
2020-06-29 10:21:18,-0.071,-0.202,2.931,-0.183,-0.244,0.000,-4.09,1.58,-0.01
2020-06-29 10:21:18,-0.074,-0.233,2.958,0.000,0.000,0.000,-4.09,1.57,-0.01
2020-06-29 10:21:18,-0.097,-0.214,2.946,-0.183,0.183,0.000,-4.10,1.58,-0.01
2020-06-29 10:21:18,-0.080,-0.219,2.962,0.244,0.305,0.000,-4.09,1.58,-0.01
2020-06-29 10:21:18,-0.073,-0.210,2.967,0.183,0.366,0.244,-4.09,1.58,-0.01
2020-06-29 10:21:18,-0.076,-0.231,2.954,0.183,0.000,0.000,-4.09,1.58,-0.01
2020-06-29 10:21:18,-0.091,-0.216,2.947,0.000,-0.244,0.183,-4.09,1.58,-0.01
2020-06-29 10:21:18,-0.083,-0.187,2.952,0.000,-0.244,0.000,-4.10,1.58,-0.01
2020-06-29 10:21:18,-0.089,-0.175,2.936,0.000,0.000,0.000,-4.09,1.58,-0.01
2020-06-29 10:21:18,-0.079,-0.164,2.930,0.000,0.000,0.000,-4.08,1.58,-0.01
2020-06-29 10:21:18,-0.064,-0.218,2.929,0.000,0.000,0.000,-4.08,1.58,-0.01
2020-06-29 10:21:18,-0.075,-0.219,2.943,-0.305,0.000,0.000,-4.08,1.58,-0.01
2020-06-29 10:21:18,-0.108,-0.228,2.938,0.000,0.183,0.000,-4.08,1.58,-0.01
2020-06-29 10:21:18,-0.077,-0.206,2.959,0.000,0.366,0.000,-4.09,1.59,-0.01
2020-06-29 10:21:18,-0.066,-0.236,2.952,0.305,0.183,0.000,-4.08,1.59,-0.01
2020-06-29 10:21:18,-0.077,-0.226,2.953,0.000,0.000,0.305,-4.09,1.58,-0.01
2020-06-29 10:21:18,-0.095,-0.228,2.955,0.000,-0.183,0.183,-4.09,1.58,-0.01
2020-06-29 10:21:18,-0.087,-0.195,2.946,-0.183,-0.244,0.244,-4.09,1.58,-0.01
2020-06-29 10:21:18,-0.089,-0.180,2.937,0.000,0.000,0.000,-4.09,1.58,-0.01
2020-06-29 10:21:18,-0.075,-0.169,2.930,0.000,0.000,0.000,-4.09,1.58,-0.01
2020-06-29 10:21:18,-0.073,-0.219,2.945,0.000,0.000,0.000,-4.08,1.58,-0.01
2020-06-29 10:21:19,-0.083,-0.218,2.945,-0.183,0.000,0.000,-4.08,1.58,-0.01
2020-06-29 10:21:19,-0.109,-0.217,2.943,0.000,0.183,0.000,-4.08,1.58,-0.01
2020-06-29 10:21:19,-0.075,-0.206,2.969,0.183,0.488,0.000,-4.08,1.59,-0.01
2020-06-29 10:21:19,-0.077,-0.235,2.955,0.000,0.244,-0.183,-4.08,1.59,-0.01
2020-06-29 10:21:19,-0.076,-0.233,2.950,0.000,0.000,0.183,-4.09,1.59,-0.01
2020-06-29 10:21:19,-0.086,-0.220,2.961,0.000,-0.305,0.000,-4.09,1.59,-0.01
2020-06-29 10:21:19,-0.092,-0.206,2.945,0.000,0.000,0.000,-4.09,1.59,-0.01
2020-06-29 10:21:19,-0.094,-0.175,2.935,0.000,0.000,0.000,-4.09,1.59,-0.01
2020-06-29 10:21:19,-0.063,-0.181,2.931,0.000,0.000,0.000,-4.08,1.59,-0.01
2020-06-29 10:21:19,-0.071,-0.202,2.943,0.000,0.000,0.000,-4.08,1.59,-0.01
2020-06-29 10:21:19,-0.083,-0.220,2.938,0.000,0.000,-0.183,-4.08,1.59,-0.01
2020-06-29 10:21:19,-0.098,-0.199,2.935,0.000,0.183,0.000,-4.08,1.59,-0.01
2020-06-29 10:21:19,-0.060,-0.208,2.966,0.427,0.305,0.244,-4.07,1.59,-0.01
2020-06-29 10:21:19,-0.079,-0.225,2.947,0.000,0.000,0.000,-4.07,1.59,-0.01
2020-06-29 10:21:19,-0.067,-0.242,2.958,0.000,-0.244,0.000,-4.08,1.59,-0.01
2020-06-29 10:21:19,-0.089,-0.225,2.949,-0.183,-0.366,0.305,-4.08,1.58,-0.01
2020-06-29 10:21:19,-0.088,-0.201,2.957,0.000,-0.183,0.000,-4.09,1.58,-0.01
2020-06-29 10:21:19,-0.094,-0.174,2.924,0.000,0.000,0.000,-4.08,1.58,-0.01
2020-06-29 10:21:19,-0.075,-0.203,2.927,0.183,0.000,-0.183,-4.08,1.59,-0.01
2020-06-29 10:21:19,-0.080,-0.207,2.937,-0.183,0.000,0.000,-4.08,1.58,-0.01
2020-06-29 10:21:19,-0.096,-0.221,2.941,0.000,0.000,-0.305,-4.08,1.58,-0.01
2020-06-29 10:21:19,-0.108,-0.206,2.938,0.000,0.305,0.000,-4.08,1.59,-0.01
2020-06-29 10:21:19,-0.073,-0.219,2.960,0.366,0.244,0.000,-4.07,1.60,-0.01
2020-06-29 10:21:19,-0.074,-0.220,2.957,0.000,0.000,0.000,-4.08,1.59,-0.01
2020-06-29 10:21:19,-0.070,-0.246,2.958,0.000,-0.305,0.000,-4.08,1.59,-0.01
2020-06-29 10:21:19,-0.107,-0.228,2.947,-0.183,-0.244,0.305,-4.09,1.59,-0.01
2020-06-29 10:21:19,-0.075,-0.193,2.971,0.000,-0.244,0.000,-4.09,1.59,-0.01
2020-06-29 10:21:19,-0.085,-0.183,2.931,0.000,0.000,0.000,-4.08,1.59,-0.01
2020-06-29 10:21:19,-0.072,-0.191,2.944,0.183,0.000,0.000,-4.08,1.59,-0.01
2020-06-29 10:21:19,-0.076,-0.221,2.939,0.000,0.000,0.000,-4.07,1.59,-0.01
2020-06-29 10:21:19,-0.083,-0.211,2.944,0.000,0.000,0.000,-4.08,1.58,-0.01
2020-06-29 10:21:19,-0.098,-0.218,2.938,0.305,0.244,0.000,-4.07,1.59,-0.01
2020-06-29 10:21:19,-0.074,-0.214,2.963,0.305,0.305,0.000,-4.07,1.59,-0.01
2020-06-29 10:21:19,-0.068,-0.239,2.946,0.000,0.000,0.000,-4.07,1.59,-0.01
2020-06-29 10:21:19,-0.069,-0.247,2.962,0.000,-0.366,0.000,-4.08,1.59,-0.01
2020-06-29 10:21:19,-0.097,-0.237,2.955,-0.183,-0.183,0.000,-4.09,1.58,-0.01
2020-06-29 10:21:19,-0.081,-0.192,2.963,0.000,0.000,0.000,-4.09,1.58,-0.01
2020-06-29 10:21:19,-0.083,-0.181,2.933,0.000,0.183,0.000,-4.09,1.59,-0.01
2020-06-29 10:21:19,-0.065,-0.198,2.945,0.305,0.183,-0.183,-4.08,1.59,-0.01
2020-06-29 10:21:19,-0.083,-0.213,2.947,0.000,0.000,0.000,-4.08,1.58,-0.01
2020-06-29 10:21:19,-0.091,-0.202,2.940,0.000,0.244,0.000,-4.08,1.59,-0.01
2020-06-29 10:21:19,-0.087,-0.206,2.948,0.305,0.000,0.183,-4.07,1.59,-0.01
2020-06-29 10:21:19,-0.064,-0.210,2.968,0.183,0.000,0.244,-4.07,1.59,-0.01
2020-06-29 10:21:19,-0.075,-0.239,2.945,0.000,-0.183,0.305,-4.07,1.58,-0.01
2020-06-29 10:21:19,-0.063,-0.249,2.962,0.000,-0.427,0.305,-4.08,1.58,-0.01
2020-06-29 10:21:19,-0.088,-0.229,2.949,-0.366,-0.427,0.000,-4.09,1.57,-0.01
2020-06-29 10:21:19,-0.092,-0.192,2.954,0.000,0.000,0.000,-4.09,1.57,-0.01
2020-06-29 10:21:19,-0.090,-0.191,2.934,0.000,0.183,0.000,-4.09,1.58,-0.01
2020-06-29 10:21:19,-0.069,-0.204,2.936,0.183,0.000,0.000,-4.08,1.58,-0.01
2020-06-29 10:21:19,-0.092,-0.217,2.935,0.000,0.000,-0.305,-4.08,1.58,-0.01
2020-06-29 10:21:19,-0.102,-0.195,2.934,0.000,0.183,0.000,-4.08,1.58,-0.01
2020-06-29 10:21:19,-0.091,-0.209,2.950,0.305,0.000,0.000,-4.08,1.58,-0.01
2020-06-29 10:21:19,-0.067,-0.214,2.952,0.000,0.000,0.000,-4.08,1.59,-0.01
2020-06-29 10:21:19,-0.069,-0.244,2.958,0.000,-0.305,0.000,-4.08,1.58,-0.01
2020-06-29 10:21:19,-0.068,-0.233,2.973,-0.244,-0.366,0.305,-4.08,1.57,-0.01
2020-06-29 10:21:19,-0.088,-0.253,2.963,-0.305,-0.183,0.000,-4.09,1.57,-0.01
2020-06-29 10:21:19,-0.089,-0.190,2.963,-0.183,0.000,0.000,-4.10,1.57,-0.01
2020-06-29 10:21:19,-0.079,-0.195,2.957,0.183,0.244,0.000,-4.09,1.58,-0.01
2020-06-29 10:21:19,-0.073,-0.207,2.943,0.000,0.183,0.000,-4.09,1.58,-0.01
2020-06-29 10:21:19,-0.088,-0.215,2.922,0.000,0.000,0.000,-4.09,1.58,-0.01
2020-06-29 10:21:19,-0.095,-0.192,2.941,0.183,0.000,0.000,-4.09,1.58,-0.01
2020-06-29 10:21:19,-0.085,-0.210,2.956,0.000,0.305,0.000,-4.09,1.58,-0.01
2020-06-29 10:21:19,-0.072,-0.219,2.938,0.000,0.000,0.000,-4.09,1.58,-0.01
2020-06-29 10:21:19,-0.063,-0.250,2.947,0.000,-0.305,0.000,-4.09,1.58,-0.01
2020-06-29 10:21:19,-0.070,-0.241,2.971,-0.366,-0.427,0.183,-4.10,1.57,-0.01
2020-06-29 10:21:19,-0.089,-0.244,2.964,-0.244,0.000,0.000,-4.11,1.57,-0.01
2020-06-29 10:21:19,-0.092,-0.204,2.945,0.000,0.000,0.000,-4.11,1.57,-0.01
2020-06-29 10:21:19,-0.074,-0.192,2.950,0.305,0.366,0.000,-4.11,1.58,-0.01
2020-06-29 10:21:19,-0.072,-0.210,2.948,0.000,0.183,-0.244,-4.10,1.58,-0.01
2020-06-29 10:21:19,-0.093,-0.207,2.925,0.000,0.183,0.000,-4.10,1.58,-0.01
2020-06-29 10:21:19,-0.098,-0.200,2.935,0.305,0.000,0.000,-4.10,1.58,-0.01
2020-06-29 10:21:19,-0.076,-0.192,2.951,0.000,0.183,0.000,-4.10,1.58,-0.01
2020-06-29 10:21:19,-0.072,-0.222,2.942,0.000,-0.183,0.000,-4.09,1.58,-0.01
2020-06-29 10:21:19,-0.066,-0.245,2.946,0.000,-0.305,0.244,-4.10,1.58,-0.01
2020-06-29 10:21:19,-0.080,-0.251,2.959,-0.366,-0.549,0.000,-4.11,1.57,-0.01
2020-06-29 10:21:19,-0.086,-0.221,2.967,0.000,0.000,0.000,-4.11,1.57,-0.01
2020-06-29 10:21:19,-0.097,-0.217,2.947,0.000,0.000,0.000,-4.11,1.57,-0.01
2020-06-29 10:21:19,-0.079,-0.192,2.942,0.244,0.488,0.000,-4.11,1.58,-0.01
2020-06-29 10:21:19,-0.069,-0.217,2.951,0.244,0.000,-0.305,-4.11,1.57,-0.01
2020-06-29 10:21:19,-0.099,-0.191,2.936,0.000,0.000,0.000,-4.11,1.57,-0.01
2020-06-29 10:21:19,-0.104,-0.212,2.930,0.366,0.244,0.000,-4.10,1.58,-0.01
2020-06-29 10:21:19,-0.082,-0.179,2.945,0.000,0.000,0.000,-4.10,1.58,-0.01
2020-06-29 10:21:19,-0.053,-0.222,2.949,0.000,-0.183,0.000,-4.10,1.58,-0.01
2020-06-29 10:21:19,-0.069,-0.232,2.954,-0.244,-0.305,0.000,-4.10,1.57,-0.01
2020-06-29 10:21:19,-0.078,-0.268,2.963,-0.183,0.000,0.000,-4.10,1.57,-0.01
